Time,header.seq,header.stamp.secs,header.stamp.nsecs,header.frame_id,orientation.x,orientation.y,orientation.z,orientation.w,orientation_covariance_0,orientation_covariance_1,orientation_covariance_2,orientation_covariance_3,orientation_covariance_4,orientation_covariance_5,orientation_covariance_6,orientation_covariance_7,orientation_covariance_8,angular_velocity.x,angular_velocity.y,angular_velocity.z,angular_velocity_covariance_0,angular_velocity_covariance_1,angular_velocity_covariance_2,angular_velocity_covariance_3,angular_velocity_covariance_4,angular_velocity_covariance_5,angular_velocity_covariance_6,angular_velocity_covariance_7,angular_velocity_covariance_8,linear_acceleration.x,linear_acceleration.y,linear_acceleration.z,linear_acceleration_covariance_0,linear_acceleration_covariance_1,linear_acceleration_covariance_2,linear_acceleration_covariance_3,linear_acceleration_covariance_4,linear_acceleration_covariance_5,linear_acceleration_covariance_6,linear_acceleration_covariance_7,linear_acceleration_covariance_8
1614051030.662756,1,1614051028,794582128,odom,0.0,0.0,0.0,1.0,0.0,0.0,0.0,0.0,0.0,0.0,0.0,0.0,0.0,0.0,0.0,0.0,0.0,0.0,0.0,0.0,0.0,0.0,0.0,0.0,0.0,0.036,-0.014,-0.934,0.0,0.0,0.0,0.0,0.0,0.0,0.0,0.0,0.0
1614051031.8025968,2,1614051030,673658847,odom,0.0,0.0,0.0,1.0,0.0,0.0,0.0,0.0,0.0,0.0,0.0,0.0,0.0,0.0,0.0,0.0,0.0,0.0,0.0,0.0,0.0,0.0,0.0,0.0,0.0,0.038,-0.014,-0.936,0.0,0.0,0.0,0.0,0.0,0.0,0.0,0.0,0.0
1614051031.9689395,3,1614051031,850435018,odom,0.0,0.0,0.0,1.0,0.0,0.0,0.0,0.0,0.0,0.0,0.0,0.0,0.0,0.0,0.0,0.0,0.0,0.0,0.0,0.0,0.0,0.0,0.0,0.0,0.0,0.038,-0.016,-0.939,0.0,0.0,0.0,0.0,0.0,0.0,0.0,0.0,0.0
1614051032.1668894,4,1614051032,50698280,odom,0.0,0.0,0.0,1.0,0.0,0.0,0.0,0.0,0.0,0.0,0.0,0.0,0.0,0.0,0.0,0.0,0.0,0.0,0.0,0.0,0.0,0.0,0.0,0.0,0.0,0.038,-0.015,-0.936,0.0,0.0,0.0,0.0,0.0,0.0,0.0,0.0,0.0
1614051032.463366,5,1614051032,250607013,odom,0.0,0.0,0.0,1.0,0.0,0.0,0.0,0.0,0.0,0.0,0.0,0.0,0.0,0.0,0.0,0.0,0.0,0.0,0.0,0.0,0.0,0.0,0.0,0.0,0.0,0.037,-0.013,-0.935,0.0,0.0,0.0,0.0,0.0,0.0,0.0,0.0,0.0
1614051032.757435,6,1614051032,496438980,odom,0.0,0.0,0.0,1.0,0.0,0.0,0.0,0.0,0.0,0.0,0.0,0.0,0.0,0.0,0.0,0.0,0.0,0.0,0.0,0.0,0.0,0.0,0.0,0.0,0.0,0.04,-0.011,-0.934,0.0,0.0,0.0,0.0,0.0,0.0,0.0,0.0,0.0
1614051032.9768255,7,1614051032,782081842,odom,0.0,0.0,0.0,1.0,0.0,0.0,0.0,0.0,0.0,0.0,0.0,0.0,0.0,0.0,0.0,0.0,0.0,0.0,0.0,0.0,0.0,0.0,0.0,0.0,0.0,0.038,-0.014,-0.939,0.0,0.0,0.0,0.0,0.0,0.0,0.0,0.0,0.0
1614051033.255199,8,1614051033,9272813,odom,0.0,0.0,0.0,1.0,0.0,0.0,0.0,0.0,0.0,0.0,0.0,0.0,0.0,0.0,0.0,0.0,0.0,0.0,0.0,0.0,0.0,0.0,0.0,0.0,0.0,0.038,-0.016,-0.938,0.0,0.0,0.0,0.0,0.0,0.0,0.0,0.0,0.0
1614051033.597252,9,1614051033,286097764,odom,0.0,0.0,0.0,1.0,0.0,0.0,0.0,0.0,0.0,0.0,0.0,0.0,0.0,0.0,0.0,0.0,0.0,0.0,0.0,0.0,0.0,0.0,0.0,0.0,0.0,0.04,-0.014,-0.939,0.0,0.0,0.0,0.0,0.0,0.0,0.0,0.0,0.0
1614051033.8828475,10,1614051033,629828691,odom,0.0,0.0,0.0,1.0,0.0,0.0,0.0,0.0,0.0,0.0,0.0,0.0,0.0,0.0,0.0,0.0,0.0,0.0,0.0,0.0,0.0,0.0,0.0,0.0,0.0,0.038,-0.014,-0.939,0.0,0.0,0.0,0.0,0.0,0.0,0.0,0.0,0.0
1614051034.107788,11,1614051033,909260988,odom,0.0,0.0,0.0,1.0,0.0,0.0,0.0,0.0,0.0,0.0,0.0,0.0,0.0,0.0,0.0,0.0,0.0,0.0,0.0,0.0,0.0,0.0,0.0,0.0,0.0,0.037,-0.014,-0.937,0.0,0.0,0.0,0.0,0.0,0.0,0.0,0.0,0.0
1614051034.2574198,12,1614051034,142462730,odom,0.0,0.0,0.0,1.0,0.0,0.0,0.0,0.0,0.0,0.0,0.0,0.0,0.0,0.0,0.0,0.0,0.0,0.0,0.0,0.0,0.0,0.0,0.0,0.0,0.0,0.039,-0.013,-0.934,0.0,0.0,0.0,0.0,0.0,0.0,0.0,0.0,0.0
1614051034.397746,13,1614051034,309605836,odom,0.0,0.0,0.0,1.0,0.0,0.0,0.0,0.0,0.0,0.0,0.0,0.0,0.0,0.0,0.0,0.0,0.0,0.0,0.0,0.0,0.0,0.0,0.0,0.0,0.0,0.039,-0.013,-0.934,0.0,0.0,0.0,0.0,0.0,0.0,0.0,0.0,0.0
1614051034.6615918,14,1614051034,509475946,odom,0.0,0.0,0.0,1.0,0.0,0.0,0.0,0.0,0.0,0.0,0.0,0.0,0.0,0.0,0.0,0.0,0.0,0.0,0.0,0.0,0.0,0.0,0.0,0.0,0.0,0.037,-0.013,-0.94,0.0,0.0,0.0,0.0,0.0,0.0,0.0,0.0,0.0
1614051034.827793,15,1614051034,709705829,odom,0.0,0.0,0.0,1.0,0.0,0.0,0.0,0.0,0.0,0.0,0.0,0.0,0.0,0.0,0.0,0.0,0.0,0.0,0.0,0.0,0.0,0.0,0.0,0.0,0.0,0.037,-0.013,-0.94,0.0,0.0,0.0,0.0,0.0,0.0,0.0,0.0,0.0
1614051034.9612794,16,1614051034,909462928,odom,0.0,0.0,0.0,1.0,0.0,0.0,0.0,0.0,0.0,0.0,0.0,0.0,0.0,0.0,0.0,0.0,0.0,0.0,0.0,0.0,0.0,0.0,0.0,0.0,0.0,0.039,-0.016,-0.935,0.0,0.0,0.0,0.0,0.0,0.0,0.0,0.0,0.0
1614051035.1650283,17,1614051035,109543323,odom,0.0,0.0,0.0,1.0,0.0,0.0,0.0,0.0,0.0,0.0,0.0,0.0,0.0,0.0,0.0,0.0,0.0,0.0,0.0,0.0,0.0,0.0,0.0,0.0,0.0,0.039,-0.014,-0.935,0.0,0.0,0.0,0.0,0.0,0.0,0.0,0.0,0.0
1614051035.3337367,18,1614051035,310367345,odom,0.0,0.0,0.0,1.0,0.0,0.0,0.0,0.0,0.0,0.0,0.0,0.0,0.0,0.0,0.0,0.0,0.0,0.0,0.0,0.0,0.0,0.0,0.0,0.0,0.0,0.037,-0.012,-0.937,0.0,0.0,0.0,0.0,0.0,0.0,0.0,0.0,0.0
1614051035.5451355,19,1614051035,509566307,odom,0.0,0.0,0.0,1.0,0.0,0.0,0.0,0.0,0.0,0.0,0.0,0.0,0.0,0.0,0.0,0.0,0.0,0.0,0.0,0.0,0.0,0.0,0.0,0.0,0.0,0.04,-0.014,-0.935,0.0,0.0,0.0,0.0,0.0,0.0,0.0,0.0,0.0
1614051035.858302,20,1614051035,709551095,odom,0.0,0.0,0.0,1.0,0.0,0.0,0.0,0.0,0.0,0.0,0.0,0.0,0.0,0.0,0.0,0.0,0.0,0.0,0.0,0.0,0.0,0.0,0.0,0.0,0.0,0.038,-0.015,-0.937,0.0,0.0,0.0,0.0,0.0,0.0,0.0,0.0,0.0
1614051036.004251,21,1614051035,909451961,odom,0.0,0.0,0.0,1.0,0.0,0.0,0.0,0.0,0.0,0.0,0.0,0.0,0.0,0.0,0.0,0.0,0.0,0.0,0.0,0.0,0.0,0.0,0.0,0.0,0.0,0.038,-0.015,-0.937,0.0,0.0,0.0,0.0,0.0,0.0,0.0,0.0,0.0
1614051036.1865618,22,1614051036,109704017,odom,0.0,0.0,0.0,1.0,0.0,0.0,0.0,0.0,0.0,0.0,0.0,0.0,0.0,0.0,0.0,0.0,0.0,0.0,0.0,0.0,0.0,0.0,0.0,0.0,0.0,0.04,-0.016,-0.934,0.0,0.0,0.0,0.0,0.0,0.0,0.0,0.0,0.0
1614051036.3408742,23,1614051036,309474706,odom,0.0,0.0,0.0,1.0,0.0,0.0,0.0,0.0,0.0,0.0,0.0,0.0,0.0,0.0,0.0,0.0,0.0,0.0,0.0,0.0,0.0,0.0,0.0,0.0,0.0,0.036,-0.014,-0.934,0.0,0.0,0.0,0.0,0.0,0.0,0.0,0.0,0.0
1614051036.57891,24,1614051036,509556293,odom,0.0,0.0,0.0,1.0,0.0,0.0,0.0,0.0,0.0,0.0,0.0,0.0,0.0,0.0,0.0,0.0,0.0,0.0,0.0,0.0,0.0,0.0,0.0,0.0,0.0,0.04,-0.014,-0.941,0.0,0.0,0.0,0.0,0.0,0.0,0.0,0.0,0.0
1614051036.7587435,25,1614051036,709846258,odom,0.0,0.0,0.0,1.0,0.0,0.0,0.0,0.0,0.0,0.0,0.0,0.0,0.0,0.0,0.0,0.0,0.0,0.0,0.0,0.0,0.0,0.0,0.0,0.0,0.0,0.04,-0.014,-0.936,0.0,0.0,0.0,0.0,0.0,0.0,0.0,0.0,0.0
1614051037.1164124,26,1614051036,960672616,odom,0.0,0.0,0.0,1.0,0.0,0.0,0.0,0.0,0.0,0.0,0.0,0.0,0.0,0.0,0.0,0.0,0.0,0.0,0.0,0.0,0.0,0.0,0.0,0.0,0.0,0.04,-0.016,-0.94,0.0,0.0,0.0,0.0,0.0,0.0,0.0,0.0,0.0
1614051037.3163514,27,1614051037,138403177,odom,0.0,0.0,0.0,1.0,0.0,0.0,0.0,0.0,0.0,0.0,0.0,0.0,0.0,0.0,0.0,0.0,0.0,0.0,0.0,0.0,0.0,0.0,0.0,0.0,0.0,0.038,-0.014,-0.935,0.0,0.0,0.0,0.0,0.0,0.0,0.0,0.0,0.0
1614051037.5401294,28,1614051037,339618444,odom,0.0,0.0,0.0,1.0,0.0,0.0,0.0,0.0,0.0,0.0,0.0,0.0,0.0,0.0,0.0,0.0,0.0,0.0,0.0,0.0,0.0,0.0,0.0,0.0,0.0,0.037,-0.017,-0.935,0.0,0.0,0.0,0.0,0.0,0.0,0.0,0.0,0.0
1614051037.717176,29,1614051037,574285030,odom,0.0,0.0,0.0,1.0,0.0,0.0,0.0,0.0,0.0,0.0,0.0,0.0,0.0,0.0,0.0,0.0,0.0,0.0,0.0,0.0,0.0,0.0,0.0,0.0,0.0,0.038,-0.015,-0.935,0.0,0.0,0.0,0.0,0.0,0.0,0.0,0.0,0.0
1614051037.9223454,30,1614051037,787874698,odom,0.0,0.0,0.0,1.0,0.0,0.0,0.0,0.0,0.0,0.0,0.0,0.0,0.0,0.0,0.0,0.0,0.0,0.0,0.0,0.0,0.0,0.0,0.0,0.0,0.0,0.039,-0.014,-0.937,0.0,0.0,0.0,0.0,0.0,0.0,0.0,0.0,0.0
1614051038.1245134,31,1614051037,956803321,odom,0.0,0.0,0.0,1.0,0.0,0.0,0.0,0.0,0.0,0.0,0.0,0.0,0.0,0.0,0.0,0.0,0.0,0.0,0.0,0.0,0.0,0.0,0.0,0.0,0.0,0.038,-0.016,-0.934,0.0,0.0,0.0,0.0,0.0,0.0,0.0,0.0,0.0
1614051038.31689,32,1614051038,151555299,odom,0.0,0.0,0.0,1.0,0.0,0.0,0.0,0.0,0.0,0.0,0.0,0.0,0.0,0.0,0.0,0.0,0.0,0.0,0.0,0.0,0.0,0.0,0.0,0.0,0.0,0.036,-0.018,-0.937,0.0,0.0,0.0,0.0,0.0,0.0,0.0,0.0,0.0
1614051038.5168803,33,1614051038,349831581,odom,0.0,0.0,0.0,1.0,0.0,0.0,0.0,0.0,0.0,0.0,0.0,0.0,0.0,0.0,0.0,0.0,0.0,0.0,0.0,0.0,0.0,0.0,0.0,0.0,0.0,0.038,-0.015,-0.939,0.0,0.0,0.0,0.0,0.0,0.0,0.0,0.0,0.0
1614051038.7274754,34,1614051038,550087928,odom,0.0,0.0,0.0,1.0,0.0,0.0,0.0,0.0,0.0,0.0,0.0,0.0,0.0,0.0,0.0,0.0,0.0,0.0,0.0,0.0,0.0,0.0,0.0,0.0,0.0,0.04,-0.015,-0.94,0.0,0.0,0.0,0.0,0.0,0.0,0.0,0.0,0.0
1614051038.9353838,35,1614051038,756738185,odom,0.0,0.0,0.0,1.0,0.0,0.0,0.0,0.0,0.0,0.0,0.0,0.0,0.0,0.0,0.0,0.0,0.0,0.0,0.0,0.0,0.0,0.0,0.0,0.0,0.0,0.038,-0.013,-0.937,0.0,0.0,0.0,0.0,0.0,0.0,0.0,0.0,0.0
1614051039.1289136,36,1614051038,969917774,odom,0.0,0.0,0.0,1.0,0.0,0.0,0.0,0.0,0.0,0.0,0.0,0.0,0.0,0.0,0.0,0.0,0.0,0.0,0.0,0.0,0.0,0.0,0.0,0.0,0.0,0.039,-0.011,-0.934,0.0,0.0,0.0,0.0,0.0,0.0,0.0,0.0,0.0
1614051039.3206003,37,1614051039,145052671,odom,0.0,0.0,0.0,1.0,0.0,0.0,0.0,0.0,0.0,0.0,0.0,0.0,0.0,0.0,0.0,0.0,0.0,0.0,0.0,0.0,0.0,0.0,0.0,0.0,0.0,0.041,-0.015,-0.936,0.0,0.0,0.0,0.0,0.0,0.0,0.0,0.0,0.0
1614051039.5230312,38,1614051039,356258869,odom,0.0,0.0,0.0,1.0,0.0,0.0,0.0,0.0,0.0,0.0,0.0,0.0,0.0,0.0,0.0,0.0,0.0,0.0,0.0,0.0,0.0,0.0,0.0,0.0,0.0,0.039,-0.014,-0.935,0.0,0.0,0.0,0.0,0.0,0.0,0.0,0.0,0.0
1614051039.7245553,39,1614051039,565706014,odom,0.0,0.0,0.0,1.0,0.0,0.0,0.0,0.0,0.0,0.0,0.0,0.0,0.0,0.0,0.0,0.0,0.0,0.0,0.0,0.0,0.0,0.0,0.0,0.0,0.0,0.04,-0.014,-0.937,0.0,0.0,0.0,0.0,0.0,0.0,0.0,0.0,0.0
1614051039.9232216,40,1614051039,775344610,odom,0.0,0.0,0.0,1.0,0.0,0.0,0.0,0.0,0.0,0.0,0.0,0.0,0.0,0.0,0.0,0.0,0.0,0.0,0.0,0.0,0.0,0.0,0.0,0.0,0.0,0.041,-0.013,-0.934,0.0,0.0,0.0,0.0,0.0,0.0,0.0,0.0,0.0
1614051040.122981,41,1614051039,948858022,odom,0.0,0.0,0.0,1.0,0.0,0.0,0.0,0.0,0.0,0.0,0.0,0.0,0.0,0.0,0.0,0.0,0.0,0.0,0.0,0.0,0.0,0.0,0.0,0.0,0.0,0.039,-0.015,-0.934,0.0,0.0,0.0,0.0,0.0,0.0,0.0,0.0,0.0
1614051040.3233593,42,1614051040,181066036,odom,0.0,0.0,0.0,1.0,0.0,0.0,0.0,0.0,0.0,0.0,0.0,0.0,0.0,0.0,0.0,0.0,0.0,0.0,0.0,0.0,0.0,0.0,0.0,0.0,0.0,0.037,-0.015,-0.941,0.0,0.0,0.0,0.0,0.0,0.0,0.0,0.0,0.0
1614051040.531357,43,1614051040,356317758,odom,0.0,0.0,0.0,1.0,0.0,0.0,0.0,0.0,0.0,0.0,0.0,0.0,0.0,0.0,0.0,0.0,0.0,0.0,0.0,0.0,0.0,0.0,0.0,0.0,0.0,0.037,-0.016,-0.939,0.0,0.0,0.0,0.0,0.0,0.0,0.0,0.0,0.0
1614051041.1587408,44,1614051040,981933355,odom,0.0,0.0,0.0,1.0,0.0,0.0,0.0,0.0,0.0,0.0,0.0,0.0,0.0,0.0,0.0,0.0,0.0,0.0,0.0,0.0,0.0,0.0,0.0,0.0,0.0,0.039,-0.012,-0.938,0.0,0.0,0.0,0.0,0.0,0.0,0.0,0.0,0.0
1614051041.3619883,45,1614051041,189691305,odom,0.0,0.0,0.0,1.0,0.0,0.0,0.0,0.0,0.0,0.0,0.0,0.0,0.0,0.0,0.0,0.0,0.0,0.0,0.0,0.0,0.0,0.0,0.0,0.0,0.0,0.039,-0.013,-0.936,0.0,0.0,0.0,0.0,0.0,0.0,0.0,0.0,0.0
1614051041.5536125,46,1614051041,381937980,odom,0.0,0.0,0.0,1.0,0.0,0.0,0.0,0.0,0.0,0.0,0.0,0.0,0.0,0.0,0.0,0.0,0.0,0.0,0.0,0.0,0.0,0.0,0.0,0.0,0.0,0.039,-0.015,-0.935,0.0,0.0,0.0,0.0,0.0,0.0,0.0,0.0,0.0
1614051041.7593207,47,1614051041,588173627,odom,0.0,0.0,0.0,1.0,0.0,0.0,0.0,0.0,0.0,0.0,0.0,0.0,0.0,0.0,0.0,0.0,0.0,0.0,0.0,0.0,0.0,0.0,0.0,0.0,0.0,0.039,-0.014,-0.936,0.0,0.0,0.0,0.0,0.0,0.0,0.0,0.0,0.0
1614051041.9535708,48,1614051041,784394502,odom,0.0,0.0,0.0,1.0,0.0,0.0,0.0,0.0,0.0,0.0,0.0,0.0,0.0,0.0,0.0,0.0,0.0,0.0,0.0,0.0,0.0,0.0,0.0,0.0,0.0,0.039,-0.017,-0.938,0.0,0.0,0.0,0.0,0.0,0.0,0.0,0.0,0.0
1614051042.1664395,49,1614051042,998735,odom,0.0,0.0,0.0,1.0,0.0,0.0,0.0,0.0,0.0,0.0,0.0,0.0,0.0,0.0,0.0,0.0,0.0,0.0,0.0,0.0,0.0,0.0,0.0,0.0,0.0,0.038,-0.013,-0.939,0.0,0.0,0.0,0.0,0.0,0.0,0.0,0.0,0.0
1614051042.369148,50,1614051042,206095933,odom,0.0,0.0,0.0,1.0,0.0,0.0,0.0,0.0,0.0,0.0,0.0,0.0,0.0,0.0,0.0,0.0,0.0,0.0,0.0,0.0,0.0,0.0,0.0,0.0,0.0,0.044,-0.013,-0.935,0.0,0.0,0.0,0.0,0.0,0.0,0.0,0.0,0.0
1614051042.5752907,51,1614051042,392467737,odom,0.0,0.0,0.0,1.0,0.0,0.0,0.0,0.0,0.0,0.0,0.0,0.0,0.0,0.0,0.0,0.0,0.0,0.0,0.0,0.0,0.0,0.0,0.0,0.0,0.0,0.039,-0.013,-0.936,0.0,0.0,0.0,0.0,0.0,0.0,0.0,0.0,0.0
1614051042.7707815,52,1614051042,596762657,odom,0.0,0.0,0.0,1.0,0.0,0.0,0.0,0.0,0.0,0.0,0.0,0.0,0.0,0.0,0.0,0.0,0.0,0.0,0.0,0.0,0.0,0.0,0.0,0.0,0.0,0.043,-0.018,-0.938,0.0,0.0,0.0,0.0,0.0,0.0,0.0,0.0,0.0
1614051042.9685678,53,1614051042,801500320,odom,0.0,0.0,0.0,1.0,0.0,0.0,0.0,0.0,0.0,0.0,0.0,0.0,0.0,0.0,0.0,0.0,0.0,0.0,0.0,0.0,0.0,0.0,0.0,0.0,0.0,0.036,-0.016,-0.932,0.0,0.0,0.0,0.0,0.0,0.0,0.0,0.0,0.0
1614051043.1911578,54,1614051043,13147592,odom,0.0,0.0,0.0,1.0,0.0,0.0,0.0,0.0,0.0,0.0,0.0,0.0,0.0,0.0,0.0,0.0,0.0,0.0,0.0,0.0,0.0,0.0,0.0,0.0,0.0,0.038,-0.017,-0.935,0.0,0.0,0.0,0.0,0.0,0.0,0.0,0.0,0.0
1614051043.382989,55,1614051043,214167356,odom,0.0,0.0,0.0,1.0,0.0,0.0,0.0,0.0,0.0,0.0,0.0,0.0,0.0,0.0,0.0,0.0,0.0,0.0,0.0,0.0,0.0,0.0,0.0,0.0,0.0,0.04,-0.016,-0.941,0.0,0.0,0.0,0.0,0.0,0.0,0.0,0.0,0.0
1614051043.5775123,56,1614051043,418387174,odom,0.0,0.0,0.0,1.0,0.0,0.0,0.0,0.0,0.0,0.0,0.0,0.0,0.0,0.0,0.0,0.0,0.0,0.0,0.0,0.0,0.0,0.0,0.0,0.0,0.0,0.039,-0.018,-0.935,0.0,0.0,0.0,0.0,0.0,0.0,0.0,0.0,0.0
1614051043.7767773,57,1614051043,619622707,odom,0.0,0.0,0.0,1.0,0.0,0.0,0.0,0.0,0.0,0.0,0.0,0.0,0.0,0.0,0.0,0.0,0.0,0.0,0.0,0.0,0.0,0.0,0.0,0.0,0.0,0.039,-0.01,-0.938,0.0,0.0,0.0,0.0,0.0,0.0,0.0,0.0,0.0
1614051043.988868,58,1614051043,826326847,odom,0.0,0.0,0.0,1.0,0.0,0.0,0.0,0.0,0.0,0.0,0.0,0.0,0.0,0.0,0.0,0.0,0.0,0.0,0.0,0.0,0.0,0.0,0.0,0.0,0.0,0.038,-0.017,-0.935,0.0,0.0,0.0,0.0,0.0,0.0,0.0,0.0,0.0
1614051044.1780753,59,1614051044,24955511,odom,0.0,0.0,0.0,1.0,0.0,0.0,0.0,0.0,0.0,0.0,0.0,0.0,0.0,0.0,0.0,0.0,0.0,0.0,0.0,0.0,0.0,0.0,0.0,0.0,0.0,0.04,-0.017,-0.934,0.0,0.0,0.0,0.0,0.0,0.0,0.0,0.0,0.0
1614051044.3825266,60,1614051044,208193540,odom,0.0,0.0,0.0,1.0,0.0,0.0,0.0,0.0,0.0,0.0,0.0,0.0,0.0,0.0,0.0,0.0,0.0,0.0,0.0,0.0,0.0,0.0,0.0,0.0,0.0,0.04,-0.014,-0.937,0.0,0.0,0.0,0.0,0.0,0.0,0.0,0.0,0.0
1614051044.5807328,61,1614051044,434844255,odom,0.0,0.0,0.0,1.0,0.0,0.0,0.0,0.0,0.0,0.0,0.0,0.0,0.0,0.0,0.0,0.0,0.0,0.0,0.0,0.0,0.0,0.0,0.0,0.0,0.0,0.04,-0.008,-0.932,0.0,0.0,0.0,0.0,0.0,0.0,0.0,0.0,0.0
1614051044.7793734,62,1614051044,601659297,odom,0.0,0.0,0.0,1.0,0.0,0.0,0.0,0.0,0.0,0.0,0.0,0.0,0.0,0.0,0.0,0.0,0.0,0.0,0.0,0.0,0.0,0.0,0.0,0.0,0.0,0.034,-0.012,-0.938,0.0,0.0,0.0,0.0,0.0,0.0,0.0,0.0,0.0
1614051044.9803843,63,1614051044,805749177,odom,0.0,0.0,0.0,1.0,0.0,0.0,0.0,0.0,0.0,0.0,0.0,0.0,0.0,0.0,0.0,0.0,0.0,0.0,0.0,0.0,0.0,0.0,0.0,0.0,0.0,0.042,-0.01,-0.929,0.0,0.0,0.0,0.0,0.0,0.0,0.0,0.0,0.0
1614051045.1820526,64,1614051045,25496721,odom,0.0,0.0,0.0,1.0,0.0,0.0,0.0,0.0,0.0,0.0,0.0,0.0,0.0,0.0,0.0,0.0,0.0,0.0,0.0,0.0,0.0,0.0,0.0,0.0,0.0,0.039,-0.015,-0.943,0.0,0.0,0.0,0.0,0.0,0.0,0.0,0.0,0.0
1614051045.3832834,65,1614051045,223474025,odom,0.0,0.0,0.0,1.0,0.0,0.0,0.0,0.0,0.0,0.0,0.0,0.0,0.0,0.0,0.0,0.0,0.0,0.0,0.0,0.0,0.0,0.0,0.0,0.0,0.0,0.035,-0.011,-0.939,0.0,0.0,0.0,0.0,0.0,0.0,0.0,0.0,0.0
1614051045.5829802,66,1614051045,427276134,odom,0.0,0.0,0.0,1.0,0.0,0.0,0.0,0.0,0.0,0.0,0.0,0.0,0.0,0.0,0.0,0.0,0.0,0.0,0.0,0.0,0.0,0.0,0.0,0.0,0.0,0.045,-0.016,-0.933,0.0,0.0,0.0,0.0,0.0,0.0,0.0,0.0,0.0
1614051045.782723,67,1614051045,616686820,odom,0.0,0.0,0.0,1.0,0.0,0.0,0.0,0.0,0.0,0.0,0.0,0.0,0.0,0.0,0.0,0.0,0.0,0.0,0.0,0.0,0.0,0.0,0.0,0.0,0.0,0.036,-0.007,-0.937,0.0,0.0,0.0,0.0,0.0,0.0,0.0,0.0,0.0
1614051045.9828,68,1614051045,809614181,odom,0.0,0.0,0.0,1.0,0.0,0.0,0.0,0.0,0.0,0.0,0.0,0.0,0.0,0.0,0.0,0.0,0.0,0.0,0.0,0.0,0.0,0.0,0.0,0.0,0.0,0.037,-0.009,-0.932,0.0,0.0,0.0,0.0,0.0,0.0,0.0,0.0,0.0
1614051046.1935046,69,1614051046,2060890,odom,0.0,0.0,0.0,1.0,0.0,0.0,0.0,0.0,0.0,0.0,0.0,0.0,0.0,0.0,0.0,0.0,0.0,0.0,0.0,0.0,0.0,0.0,0.0,0.0,0.0,0.042,-0.013,-0.929,0.0,0.0,0.0,0.0,0.0,0.0,0.0,0.0,0.0
1614051046.3828673,70,1614051046,203940153,odom,0.0,0.0,0.0,1.0,0.0,0.0,0.0,0.0,0.0,0.0,0.0,0.0,0.0,0.0,0.0,0.0,0.0,0.0,0.0,0.0,0.0,0.0,0.0,0.0,0.0,0.041,-0.011,-0.931,0.0,0.0,0.0,0.0,0.0,0.0,0.0,0.0,0.0
1614051046.583986,71,1614051046,405974864,odom,0.0,0.0,0.0,1.0,0.0,0.0,0.0,0.0,0.0,0.0,0.0,0.0,0.0,0.0,0.0,0.0,0.0,0.0,0.0,0.0,0.0,0.0,0.0,0.0,0.0,0.035,-0.011,-0.938,0.0,0.0,0.0,0.0,0.0,0.0,0.0,0.0,0.0
1614051046.782593,72,1614051046,623986244,odom,0.0,0.0,0.0,1.0,0.0,0.0,0.0,0.0,0.0,0.0,0.0,0.0,0.0,0.0,0.0,0.0,0.0,0.0,0.0,0.0,0.0,0.0,0.0,0.0,0.0,0.046,-0.02,-0.932,0.0,0.0,0.0,0.0,0.0,0.0,0.0,0.0,0.0
1614051046.9909337,73,1614051046,815084218,odom,0.0,0.0,0.0,1.0,0.0,0.0,0.0,0.0,0.0,0.0,0.0,0.0,0.0,0.0,0.0,0.0,0.0,0.0,0.0,0.0,0.0,0.0,0.0,0.0,0.0,0.039,-0.017,-0.939,0.0,0.0,0.0,0.0,0.0,0.0,0.0,0.0,0.0
1614051047.1879146,74,1614051047,50523996,odom,0.0,0.0,0.0,1.0,0.0,0.0,0.0,0.0,0.0,0.0,0.0,0.0,0.0,0.0,0.0,0.0,0.0,0.0,0.0,0.0,0.0,0.0,0.0,0.0,0.0,0.034,-0.001,-0.927,0.0,0.0,0.0,0.0,0.0,0.0,0.0,0.0,0.0
1614051047.3882644,75,1614051047,226467847,odom,0.0,0.0,0.0,1.0,0.0,0.0,0.0,0.0,0.0,0.0,0.0,0.0,0.0,0.0,0.0,0.0,0.0,0.0,0.0,0.0,0.0,0.0,0.0,0.0,0.0,0.036,-0.005,-0.932,0.0,0.0,0.0,0.0,0.0,0.0,0.0,0.0,0.0
1614051047.587146,76,1614051047,419793844,odom,0.0,0.0,0.0,1.0,0.0,0.0,0.0,0.0,0.0,0.0,0.0,0.0,0.0,0.0,0.0,0.0,0.0,0.0,0.0,0.0,0.0,0.0,0.0,0.0,0.0,0.043,-0.023,-0.935,0.0,0.0,0.0,0.0,0.0,0.0,0.0,0.0,0.0
1614051047.7915254,77,1614051047,632359504,odom,0.0,0.0,0.0,1.0,0.0,0.0,0.0,0.0,0.0,0.0,0.0,0.0,0.0,0.0,0.0,0.0,0.0,0.0,0.0,0.0,0.0,0.0,0.0,0.0,0.0,0.034,-0.005,-0.931,0.0,0.0,0.0,0.0,0.0,0.0,0.0,0.0,0.0
1614051047.9861221,78,1614051047,828820228,odom,0.0,0.0,0.0,1.0,0.0,0.0,0.0,0.0,0.0,0.0,0.0,0.0,0.0,0.0,0.0,0.0,0.0,0.0,0.0,0.0,0.0,0.0,0.0,0.0,0.0,0.032,-0.016,-0.923,0.0,0.0,0.0,0.0,0.0,0.0,0.0,0.0,0.0
1614051048.186896,79,1614051048,72871208,odom,0.0,0.0,0.0,1.0,0.0,0.0,0.0,0.0,0.0,0.0,0.0,0.0,0.0,0.0,0.0,0.0,0.0,0.0,0.0,0.0,0.0,0.0,0.0,0.0,0.0,0.041,-0.012,-0.941,0.0,0.0,0.0,0.0,0.0,0.0,0.0,0.0,0.0
1614051048.3854814,80,1614051048,235973358,odom,0.0,0.0,0.0,1.0,0.0,0.0,0.0,0.0,0.0,0.0,0.0,0.0,0.0,0.0,0.0,0.0,0.0,0.0,0.0,0.0,0.0,0.0,0.0,0.0,0.0,0.028,-0.019,-0.928,0.0,0.0,0.0,0.0,0.0,0.0,0.0,0.0,0.0
1614051048.5856385,81,1614051048,441762447,odom,0.0,0.0,0.0,1.0,0.0,0.0,0.0,0.0,0.0,0.0,0.0,0.0,0.0,0.0,0.0,0.0,0.0,0.0,0.0,0.0,0.0,0.0,0.0,0.0,0.0,0.036,-0.005,-0.94,0.0,0.0,0.0,0.0,0.0,0.0,0.0,0.0,0.0
1614051048.7853844,82,1614051048,631327390,odom,0.0,0.0,0.0,1.0,0.0,0.0,0.0,0.0,0.0,0.0,0.0,0.0,0.0,0.0,0.0,0.0,0.0,0.0,0.0,0.0,0.0,0.0,0.0,0.0,0.0,0.04,-0.019,-0.926,0.0,0.0,0.0,0.0,0.0,0.0,0.0,0.0,0.0
1614051048.9855096,83,1614051048,820290565,odom,0.0,0.0,0.0,1.0,0.0,0.0,0.0,0.0,0.0,0.0,0.0,0.0,0.0,0.0,0.0,0.0,0.0,0.0,0.0,0.0,0.0,0.0,0.0,0.0,0.0,0.031,-0.012,-0.934,0.0,0.0,0.0,0.0,0.0,0.0,0.0,0.0,0.0
1614051049.190818,84,1614051049,11256933,odom,0.0,0.0,0.0,1.0,0.0,0.0,0.0,0.0,0.0,0.0,0.0,0.0,0.0,0.0,0.0,0.0,0.0,0.0,0.0,0.0,0.0,0.0,0.0,0.0,0.0,0.036,-0.008,-0.931,0.0,0.0,0.0,0.0,0.0,0.0,0.0,0.0,0.0
1614051049.3871455,85,1614051049,227005004,odom,0.0,0.0,0.0,1.0,0.0,0.0,0.0,0.0,0.0,0.0,0.0,0.0,0.0,0.0,0.0,0.0,0.0,0.0,0.0,0.0,0.0,0.0,0.0,0.0,0.0,0.042,-0.021,-0.945,0.0,0.0,0.0,0.0,0.0,0.0,0.0,0.0,0.0
1614051049.58917,86,1614051049,413342237,odom,0.0,0.0,0.0,1.0,0.0,0.0,0.0,0.0,0.0,0.0,0.0,0.0,0.0,0.0,0.0,0.0,0.0,0.0,0.0,0.0,0.0,0.0,0.0,0.0,0.0,0.034,-0.004,-0.929,0.0,0.0,0.0,0.0,0.0,0.0,0.0,0.0,0.0
1614051049.7871652,87,1614051049,617117404,odom,0.0,0.0,0.0,1.0,0.0,0.0,0.0,0.0,0.0,0.0,0.0,0.0,0.0,0.0,0.0,0.0,0.0,0.0,0.0,0.0,0.0,0.0,0.0,0.0,0.0,0.04,-0.016,-0.933,0.0,0.0,0.0,0.0,0.0,0.0,0.0,0.0,0.0
1614051049.9921625,88,1614051049,807768583,odom,0.0,0.0,0.0,1.0,0.0,0.0,0.0,0.0,0.0,0.0,0.0,0.0,0.0,0.0,0.0,0.0,0.0,0.0,0.0,0.0,0.0,0.0,0.0,0.0,0.0,0.035,-0.006,-0.926,0.0,0.0,0.0,0.0,0.0,0.0,0.0,0.0,0.0
1614051050.1962097,89,1614051050,14234542,odom,0.0,0.0,0.0,1.0,0.0,0.0,0.0,0.0,0.0,0.0,0.0,0.0,0.0,0.0,0.0,0.0,0.0,0.0,0.0,0.0,0.0,0.0,0.0,0.0,0.0,0.044,-0.015,-0.947,0.0,0.0,0.0,0.0,0.0,0.0,0.0,0.0,0.0
1614051050.3973556,90,1614051050,230197191,odom,0.0,0.0,0.0,1.0,0.0,0.0,0.0,0.0,0.0,0.0,0.0,0.0,0.0,0.0,0.0,0.0,0.0,0.0,0.0,0.0,0.0,0.0,0.0,0.0,0.0,0.034,-0.014,-0.931,0.0,0.0,0.0,0.0,0.0,0.0,0.0,0.0,0.0
1614051050.5993245,91,1614051050,440464019,odom,0.0,0.0,0.0,1.0,0.0,0.0,0.0,0.0,0.0,0.0,0.0,0.0,0.0,0.0,0.0,0.0,0.0,0.0,0.0,0.0,0.0,0.0,0.0,0.0,0.0,0.046,-0.01,-0.942,0.0,0.0,0.0,0.0,0.0,0.0,0.0,0.0,0.0
1614051050.7997105,92,1614051050,646781682,odom,0.0,0.0,0.0,1.0,0.0,0.0,0.0,0.0,0.0,0.0,0.0,0.0,0.0,0.0,0.0,0.0,0.0,0.0,0.0,0.0,0.0,0.0,0.0,0.0,0.0,0.045,-0.008,-0.937,0.0,0.0,0.0,0.0,0.0,0.0,0.0,0.0,0.0
1614051056.935031,93,1614051050,838979244,odom,0.0,0.0,0.0,1.0,0.0,0.0,0.0,0.0,0.0,0.0,0.0,0.0,0.0,0.0,0.0,0.0,0.0,0.0,0.0,0.0,0.0,0.0,0.0,0.0,0.0,0.008,-0.021,-0.939,0.0,0.0,0.0,0.0,0.0,0.0,0.0,0.0,0.0
1614051057.007875,94,1614051056,952561616,odom,0.0,0.0,0.0,1.0,0.0,0.0,0.0,0.0,0.0,0.0,0.0,0.0,0.0,0.0,0.0,0.0,0.0,0.0,0.0,0.0,0.0,0.0,0.0,0.0,0.0,0.008,-0.021,-0.939,0.0,0.0,0.0,0.0,0.0,0.0,0.0,0.0,0.0
1614051057.2024047,95,1614051057,153443336,odom,0.0,0.0,0.0,1.0,0.0,0.0,0.0,0.0,0.0,0.0,0.0,0.0,0.0,0.0,0.0,0.0,0.0,0.0,0.0,0.0,0.0,0.0,0.0,0.0,0.0,-0.019,0.054,-0.89,0.0,0.0,0.0,0.0,0.0,0.0,0.0,0.0,0.0
1614051057.4046915,96,1614051057,352813005,odom,0.0,0.0,0.0,1.0,0.0,0.0,0.0,0.0,0.0,0.0,0.0,0.0,0.0,0.0,0.0,0.0,0.0,0.0,0.0,0.0,0.0,0.0,0.0,0.0,0.0,-0.053,-0.074,-0.912,0.0,0.0,0.0,0.0,0.0,0.0,0.0,0.0,0.0
1614051057.584144,97,1614051057,556468725,odom,0.0,0.0,0.0,1.0,0.0,0.0,0.0,0.0,0.0,0.0,0.0,0.0,0.0,0.0,0.0,0.0,0.0,0.0,0.0,0.0,0.0,0.0,0.0,0.0,0.0,-0.079,0.0,-1.021,0.0,0.0,0.0,0.0,0.0,0.0,0.0,0.0,0.0
1614051057.781122,98,1614051057,752824306,odom,0.0,0.0,0.0,1.0,0.0,0.0,0.0,0.0,0.0,0.0,0.0,0.0,0.0,0.0,0.0,0.0,0.0,0.0,0.0,0.0,0.0,0.0,0.0,0.0,0.0,-0.066,-0.069,-1.005,0.0,0.0,0.0,0.0,0.0,0.0,0.0,0.0,0.0
1614051057.9821863,99,1614051057,952839136,odom,0.0,0.0,0.0,1.0,0.0,0.0,0.0,0.0,0.0,0.0,0.0,0.0,0.0,0.0,0.0,0.0,0.0,0.0,0.0,0.0,0.0,0.0,0.0,0.0,0.0,0.065,-0.083,-1.241,0.0,0.0,0.0,0.0,0.0,0.0,0.0,0.0,0.0
1614051058.1834452,100,1614051058,154291629,odom,0.0,0.0,0.0,1.0,0.0,0.0,0.0,0.0,0.0,0.0,0.0,0.0,0.0,0.0,0.0,0.0,0.0,0.0,0.0,0.0,0.0,0.0,0.0,0.0,0.0,-0.097,0.177,-1.071,0.0,0.0,0.0,0.0,0.0,0.0,0.0,0.0,0.0
1614051058.3756745,101,1614051058,352964401,odom,0.0,0.0,0.0,1.0,0.0,0.0,0.0,0.0,0.0,0.0,0.0,0.0,0.0,0.0,0.0,0.0,0.0,0.0,0.0,0.0,0.0,0.0,0.0,0.0,0.0,-0.013,0.102,-0.733,0.0,0.0,0.0,0.0,0.0,0.0,0.0,0.0,0.0
1614051058.589902,102,1614051058,553060054,odom,0.0,0.0,0.0,1.0,0.0,0.0,0.0,0.0,0.0,0.0,0.0,0.0,0.0,0.0,0.0,0.0,0.0,0.0,0.0,0.0,0.0,0.0,0.0,0.0,0.0,0.101,0.298,-0.978,0.0,0.0,0.0,0.0,0.0,0.0,0.0,0.0,0.0
1614051058.7885122,103,1614051058,752797126,odom,0.0,0.0,0.0,1.0,0.0,0.0,0.0,0.0,0.0,0.0,0.0,0.0,0.0,0.0,0.0,0.0,0.0,0.0,0.0,0.0,0.0,0.0,0.0,0.0,0.0,0.013,-0.019,-0.889,0.0,0.0,0.0,0.0,0.0,0.0,0.0,0.0,0.0
1614051058.9855433,104,1614051058,952826261,odom,0.0,0.0,0.0,1.0,0.0,0.0,0.0,0.0,0.0,0.0,0.0,0.0,0.0,0.0,0.0,0.0,0.0,0.0,0.0,0.0,0.0,0.0,0.0,0.0,0.0,0.188,0.047,-0.735,0.0,0.0,0.0,0.0,0.0,0.0,0.0,0.0,0.0
1614051059.1964507,105,1614051059,152830839,odom,0.0,0.0,0.0,1.0,0.0,0.0,0.0,0.0,0.0,0.0,0.0,0.0,0.0,0.0,0.0,0.0,0.0,0.0,0.0,0.0,0.0,0.0,0.0,0.0,0.0,0.026,-0.034,-0.951,0.0,0.0,0.0,0.0,0.0,0.0,0.0,0.0,0.0
1614051059.3772988,106,1614051059,352813243,odom,0.0,0.0,0.0,1.0,0.0,0.0,0.0,0.0,0.0,0.0,0.0,0.0,0.0,0.0,0.0,0.0,0.0,0.0,0.0,0.0,0.0,0.0,0.0,0.0,0.0,0.055,0.024,-0.946,0.0,0.0,0.0,0.0,0.0,0.0,0.0,0.0,0.0
1614051059.585537,107,1614051059,552943468,odom,0.0,0.0,0.0,1.0,0.0,0.0,0.0,0.0,0.0,0.0,0.0,0.0,0.0,0.0,0.0,0.0,0.0,0.0,0.0,0.0,0.0,0.0,0.0,0.0,0.0,-0.041,-0.048,-0.939,0.0,0.0,0.0,0.0,0.0,0.0,0.0,0.0,0.0
1614051059.7996917,108,1614051059,752859115,odom,0.0,0.0,0.0,1.0,0.0,0.0,0.0,0.0,0.0,0.0,0.0,0.0,0.0,0.0,0.0,0.0,0.0,0.0,0.0,0.0,0.0,0.0,0.0,0.0,0.0,0.0,-0.061,-0.836,0.0,0.0,0.0,0.0,0.0,0.0,0.0,0.0,0.0
1614051060.0225022,109,1614051059,952820301,odom,0.0,0.0,0.0,1.0,0.0,0.0,0.0,0.0,0.0,0.0,0.0,0.0,0.0,0.0,0.0,0.0,0.0,0.0,0.0,0.0,0.0,0.0,0.0,0.0,0.0,0.013,-0.173,-1.112,0.0,0.0,0.0,0.0,0.0,0.0,0.0,0.0,0.0
1614051060.187124,110,1614051060,154175281,odom,0.0,0.0,0.0,1.0,0.0,0.0,0.0,0.0,0.0,0.0,0.0,0.0,0.0,0.0,0.0,0.0,0.0,0.0,0.0,0.0,0.0,0.0,0.0,0.0,0.0,0.095,0.005,-0.88,0.0,0.0,0.0,0.0,0.0,0.0,0.0,0.0,0.0
1614051060.394328,111,1614051060,352794885,odom,0.0,0.0,0.0,1.0,0.0,0.0,0.0,0.0,0.0,0.0,0.0,0.0,0.0,0.0,0.0,0.0,0.0,0.0,0.0,0.0,0.0,0.0,0.0,0.0,0.0,0.018,-0.051,-1.292,0.0,0.0,0.0,0.0,0.0,0.0,0.0,0.0,0.0
1614051060.5925617,112,1614051060,553225755,odom,0.0,0.0,0.0,1.0,0.0,0.0,0.0,0.0,0.0,0.0,0.0,0.0,0.0,0.0,0.0,0.0,0.0,0.0,0.0,0.0,0.0,0.0,0.0,0.0,0.0,0.029,0.058,-0.941,0.0,0.0,0.0,0.0,0.0,0.0,0.0,0.0,0.0
1614051060.7972589,113,1614051060,753658056,odom,0.0,0.0,0.0,1.0,0.0,0.0,0.0,0.0,0.0,0.0,0.0,0.0,0.0,0.0,0.0,0.0,0.0,0.0,0.0,0.0,0.0,0.0,0.0,0.0,0.0,0.113,0.262,-0.882,0.0,0.0,0.0,0.0,0.0,0.0,0.0,0.0,0.0
1614051060.9739974,114,1614051060,952793359,odom,0.0,0.0,0.0,1.0,0.0,0.0,0.0,0.0,0.0,0.0,0.0,0.0,0.0,0.0,0.0,0.0,0.0,0.0,0.0,0.0,0.0,0.0,0.0,0.0,0.0,0.047,0.175,-1.149,0.0,0.0,0.0,0.0,0.0,0.0,0.0,0.0,0.0
1614051061.1748264,115,1614051061,152885675,odom,0.0,0.0,0.0,1.0,0.0,0.0,0.0,0.0,0.0,0.0,0.0,0.0,0.0,0.0,0.0,0.0,0.0,0.0,0.0,0.0,0.0,0.0,0.0,0.0,0.0,-0.011,0.083,-1.224,0.0,0.0,0.0,0.0,0.0,0.0,0.0,0.0,0.0
1614051061.37396,116,1614051061,352815151,odom,0.0,0.0,0.0,1.0,0.0,0.0,0.0,0.0,0.0,0.0,0.0,0.0,0.0,0.0,0.0,0.0,0.0,0.0,0.0,0.0,0.0,0.0,0.0,0.0,0.0,0.2,0.025,-0.561,0.0,0.0,0.0,0.0,0.0,0.0,0.0,0.0,0.0
1614051061.5775979,117,1614051061,552917242,odom,0.0,0.0,0.0,1.0,0.0,0.0,0.0,0.0,0.0,0.0,0.0,0.0,0.0,0.0,0.0,0.0,0.0,0.0,0.0,0.0,0.0,0.0,0.0,0.0,0.0,0.069,0.008,-0.809,0.0,0.0,0.0,0.0,0.0,0.0,0.0,0.0,0.0
1614051061.7670255,118,1614051061,752826452,odom,0.0,0.0,0.0,1.0,0.0,0.0,0.0,0.0,0.0,0.0,0.0,0.0,0.0,0.0,0.0,0.0,0.0,0.0,0.0,0.0,0.0,0.0,0.0,0.0,0.0,-0.02,-0.12,-0.766,0.0,0.0,0.0,0.0,0.0,0.0,0.0,0.0,0.0
1614051061.9886854,119,1614051061,952853918,odom,0.0,0.0,0.0,1.0,0.0,0.0,0.0,0.0,0.0,0.0,0.0,0.0,0.0,0.0,0.0,0.0,0.0,0.0,0.0,0.0,0.0,0.0,0.0,0.0,0.0,0.113,0.024,-0.63,0.0,0.0,0.0,0.0,0.0,0.0,0.0,0.0,0.0
1614051062.1767037,120,1614051062,152829170,odom,0.0,0.0,0.0,1.0,0.0,0.0,0.0,0.0,0.0,0.0,0.0,0.0,0.0,0.0,0.0,0.0,0.0,0.0,0.0,0.0,0.0,0.0,0.0,0.0,0.0,0.003,-0.102,-0.619,0.0,0.0,0.0,0.0,0.0,0.0,0.0,0.0,0.0
1614051062.3781993,121,1614051062,352824211,odom,0.0,0.0,0.0,1.0,0.0,0.0,0.0,0.0,0.0,0.0,0.0,0.0,0.0,0.0,0.0,0.0,0.0,0.0,0.0,0.0,0.0,0.0,0.0,0.0,0.0,-0.173,-0.017,-1.161,0.0,0.0,0.0,0.0,0.0,0.0,0.0,0.0,0.0
1614051062.5737693,122,1614051062,552824020,odom,0.0,0.0,0.0,1.0,0.0,0.0,0.0,0.0,0.0,0.0,0.0,0.0,0.0,0.0,0.0,0.0,0.0,0.0,0.0,0.0,0.0,0.0,0.0,0.0,0.0,-0.012,-0.017,-0.855,0.0,0.0,0.0,0.0,0.0,0.0,0.0,0.0,0.0
1614051062.769597,123,1614051062,752969980,odom,0.0,0.0,0.0,1.0,0.0,0.0,0.0,0.0,0.0,0.0,0.0,0.0,0.0,0.0,0.0,0.0,0.0,0.0,0.0,0.0,0.0,0.0,0.0,0.0,0.0,-0.018,0.002,-0.924,0.0,0.0,0.0,0.0,0.0,0.0,0.0,0.0,0.0
1614051062.979337,124,1614051062,953030109,odom,0.0,0.0,0.0,1.0,0.0,0.0,0.0,0.0,0.0,0.0,0.0,0.0,0.0,0.0,0.0,0.0,0.0,0.0,0.0,0.0,0.0,0.0,0.0,0.0,0.0,0.006,-0.008,-0.731,0.0,0.0,0.0,0.0,0.0,0.0,0.0,0.0,0.0
1614051063.3802466,125,1614051063,195884466,odom,0.0,0.0,0.0,1.0,0.0,0.0,0.0,0.0,0.0,0.0,0.0,0.0,0.0,0.0,0.0,0.0,0.0,0.0,0.0,0.0,0.0,0.0,0.0,0.0,0.0,-0.093,0.197,-0.641,0.0,0.0,0.0,0.0,0.0,0.0,0.0,0.0,0.0
1614051063.5829532,126,1614051063,411095380,odom,0.0,0.0,0.0,1.0,0.0,0.0,0.0,0.0,0.0,0.0,0.0,0.0,0.0,0.0,0.0,0.0,0.0,0.0,0.0,0.0,0.0,0.0,0.0,0.0,0.0,0.269,0.159,-0.799,0.0,0.0,0.0,0.0,0.0,0.0,0.0,0.0,0.0
1614051063.9909768,127,1614051063,816116333,odom,0.0,0.0,0.0,1.0,0.0,0.0,0.0,0.0,0.0,0.0,0.0,0.0,0.0,0.0,0.0,0.0,0.0,0.0,0.0,0.0,0.0,0.0,0.0,0.0,0.0,0.349,0.013,-0.87,0.0,0.0,0.0,0.0,0.0,0.0,0.0,0.0,0.0
1614051064.1957276,128,1614051064,35025596,odom,0.0,0.0,0.0,1.0,0.0,0.0,0.0,0.0,0.0,0.0,0.0,0.0,0.0,0.0,0.0,0.0,0.0,0.0,0.0,0.0,0.0,0.0,0.0,0.0,0.0,-0.101,-0.069,-0.9,0.0,0.0,0.0,0.0,0.0,0.0,0.0,0.0,0.0
1614051064.3915339,129,1614051064,238853693,odom,0.0,0.0,0.0,1.0,0.0,0.0,0.0,0.0,0.0,0.0,0.0,0.0,0.0,0.0,0.0,0.0,0.0,0.0,0.0,0.0,0.0,0.0,0.0,0.0,0.0,0.283,0.1,-0.702,0.0,0.0,0.0,0.0,0.0,0.0,0.0,0.0,0.0
1614051064.5951402,130,1614051064,420358657,odom,0.0,0.0,0.0,1.0,0.0,0.0,0.0,0.0,0.0,0.0,0.0,0.0,0.0,0.0,0.0,0.0,0.0,0.0,0.0,0.0,0.0,0.0,0.0,0.0,0.0,-0.161,0.094,-1.121,0.0,0.0,0.0,0.0,0.0,0.0,0.0,0.0,0.0
1614051064.795205,131,1614051064,622529029,odom,0.0,0.0,0.0,1.0,0.0,0.0,0.0,0.0,0.0,0.0,0.0,0.0,0.0,0.0,0.0,0.0,0.0,0.0,0.0,0.0,0.0,0.0,0.0,0.0,0.0,0.269,0.055,-0.924,0.0,0.0,0.0,0.0,0.0,0.0,0.0,0.0,0.0
1614051064.9951618,132,1614051064,830021381,odom,0.0,0.0,0.0,1.0,0.0,0.0,0.0,0.0,0.0,0.0,0.0,0.0,0.0,0.0,0.0,0.0,0.0,0.0,0.0,0.0,0.0,0.0,0.0,0.0,0.0,-0.16,0.119,-1.328,0.0,0.0,0.0,0.0,0.0,0.0,0.0,0.0,0.0
1614051065.1979787,133,1614051065,38918972,odom,0.0,0.0,0.0,1.0,0.0,0.0,0.0,0.0,0.0,0.0,0.0,0.0,0.0,0.0,0.0,0.0,0.0,0.0,0.0,0.0,0.0,0.0,0.0,0.0,0.0,0.082,-0.026,-0.932,0.0,0.0,0.0,0.0,0.0,0.0,0.0,0.0,0.0
1614051065.408553,134,1614051065,227624893,odom,0.0,0.0,0.0,1.0,0.0,0.0,0.0,0.0,0.0,0.0,0.0,0.0,0.0,0.0,0.0,0.0,0.0,0.0,0.0,0.0,0.0,0.0,0.0,0.0,0.0,0.121,-0.05,-1.083,0.0,0.0,0.0,0.0,0.0,0.0,0.0,0.0,0.0
1614051065.6012132,135,1614051065,459794282,odom,0.0,0.0,0.0,1.0,0.0,0.0,0.0,0.0,0.0,0.0,0.0,0.0,0.0,0.0,0.0,0.0,0.0,0.0,0.0,0.0,0.0,0.0,0.0,0.0,0.0,0.047,0.06,-0.894,0.0,0.0,0.0,0.0,0.0,0.0,0.0,0.0,0.0
1614051065.818239,136,1614051065,657460212,odom,0.0,0.0,0.0,1.0,0.0,0.0,0.0,0.0,0.0,0.0,0.0,0.0,0.0,0.0,0.0,0.0,0.0,0.0,0.0,0.0,0.0,0.0,0.0,0.0,0.0,0.034,-0.113,-0.893,0.0,0.0,0.0,0.0,0.0,0.0,0.0,0.0,0.0
1614051066.0045002,137,1614051065,838305234,odom,0.0,0.0,0.0,1.0,0.0,0.0,0.0,0.0,0.0,0.0,0.0,0.0,0.0,0.0,0.0,0.0,0.0,0.0,0.0,0.0,0.0,0.0,0.0,0.0,0.0,0.064,-0.034,-1.188,0.0,0.0,0.0,0.0,0.0,0.0,0.0,0.0,0.0
1614051066.2135324,138,1614051066,26218891,odom,0.0,0.0,0.0,1.0,0.0,0.0,0.0,0.0,0.0,0.0,0.0,0.0,0.0,0.0,0.0,0.0,0.0,0.0,0.0,0.0,0.0,0.0,0.0,0.0,0.0,-0.003,-0.02,-0.922,0.0,0.0,0.0,0.0,0.0,0.0,0.0,0.0,0.0
1614051066.4149148,139,1614051066,260208845,odom,0.0,0.0,0.0,1.0,0.0,0.0,0.0,0.0,0.0,0.0,0.0,0.0,0.0,0.0,0.0,0.0,0.0,0.0,0.0,0.0,0.0,0.0,0.0,0.0,0.0,0.104,-0.052,-0.834,0.0,0.0,0.0,0.0,0.0,0.0,0.0,0.0,0.0
1614051066.6168222,140,1614051066,432398319,odom,0.0,0.0,0.0,1.0,0.0,0.0,0.0,0.0,0.0,0.0,0.0,0.0,0.0,0.0,0.0,0.0,0.0,0.0,0.0,0.0,0.0,0.0,0.0,0.0,0.0,-0.07,0.02,-1.314,0.0,0.0,0.0,0.0,0.0,0.0,0.0,0.0,0.0
1614051066.8270814,141,1614051066,633545637,odom,0.0,0.0,0.0,1.0,0.0,0.0,0.0,0.0,0.0,0.0,0.0,0.0,0.0,0.0,0.0,0.0,0.0,0.0,0.0,0.0,0.0,0.0,0.0,0.0,0.0,0.127,0.036,-0.669,0.0,0.0,0.0,0.0,0.0,0.0,0.0,0.0,0.0
1614051067.0060024,142,1614051066,831999778,odom,0.0,0.0,0.0,1.0,0.0,0.0,0.0,0.0,0.0,0.0,0.0,0.0,0.0,0.0,0.0,0.0,0.0,0.0,0.0,0.0,0.0,0.0,0.0,0.0,0.0,0.091,0.117,-0.849,0.0,0.0,0.0,0.0,0.0,0.0,0.0,0.0,0.0
1614051067.2165787,143,1614051067,41642189,odom,0.0,0.0,0.0,1.0,0.0,0.0,0.0,0.0,0.0,0.0,0.0,0.0,0.0,0.0,0.0,0.0,0.0,0.0,0.0,0.0,0.0,0.0,0.0,0.0,0.0,0.0,-0.083,-0.742,0.0,0.0,0.0,0.0,0.0,0.0,0.0,0.0,0.0
1614051067.4079423,144,1614051067,226781845,odom,0.0,0.0,0.0,1.0,0.0,0.0,0.0,0.0,0.0,0.0,0.0,0.0,0.0,0.0,0.0,0.0,0.0,0.0,0.0,0.0,0.0,0.0,0.0,0.0,0.0,0.066,-0.05,-1.143,0.0,0.0,0.0,0.0,0.0,0.0,0.0,0.0,0.0
1614051067.6200798,145,1614051067,445636272,odom,0.0,0.0,0.0,1.0,0.0,0.0,0.0,0.0,0.0,0.0,0.0,0.0,0.0,0.0,0.0,0.0,0.0,0.0,0.0,0.0,0.0,0.0,0.0,0.0,0.0,0.095,0.012,-1.196,0.0,0.0,0.0,0.0,0.0,0.0,0.0,0.0,0.0
1614051067.837934,146,1614051067,629676342,odom,0.0,0.0,0.0,1.0,0.0,0.0,0.0,0.0,0.0,0.0,0.0,0.0,0.0,0.0,0.0,0.0,0.0,0.0,0.0,0.0,0.0,0.0,0.0,0.0,0.0,-0.17,-0.002,-0.996,0.0,0.0,0.0,0.0,0.0,0.0,0.0,0.0,0.0
1614051068.0078928,147,1614051067,849236726,odom,0.0,0.0,0.0,1.0,0.0,0.0,0.0,0.0,0.0,0.0,0.0,0.0,0.0,0.0,0.0,0.0,0.0,0.0,0.0,0.0,0.0,0.0,0.0,0.0,0.0,-0.093,-0.001,-0.961,0.0,0.0,0.0,0.0,0.0,0.0,0.0,0.0,0.0
1614051068.2114468,148,1614051068,48479795,odom,0.0,0.0,0.0,1.0,0.0,0.0,0.0,0.0,0.0,0.0,0.0,0.0,0.0,0.0,0.0,0.0,0.0,0.0,0.0,0.0,0.0,0.0,0.0,0.0,0.0,-0.044,0.028,-0.825,0.0,0.0,0.0,0.0,0.0,0.0,0.0,0.0,0.0
1614051068.414828,149,1614051068,248272180,odom,0.0,0.0,0.0,1.0,0.0,0.0,0.0,0.0,0.0,0.0,0.0,0.0,0.0,0.0,0.0,0.0,0.0,0.0,0.0,0.0,0.0,0.0,0.0,0.0,0.0,0.073,0.125,-0.674,0.0,0.0,0.0,0.0,0.0,0.0,0.0,0.0,0.0
1614051068.6276863,150,1614051068,466253280,odom,0.0,0.0,0.0,1.0,0.0,0.0,0.0,0.0,0.0,0.0,0.0,0.0,0.0,0.0,0.0,0.0,0.0,0.0,0.0,0.0,0.0,0.0,0.0,0.0,0.0,0.179,0.245,-0.789,0.0,0.0,0.0,0.0,0.0,0.0,0.0,0.0,0.0
1614051068.8135667,151,1614051068,635170698,odom,0.0,0.0,0.0,1.0,0.0,0.0,0.0,0.0,0.0,0.0,0.0,0.0,0.0,0.0,0.0,0.0,0.0,0.0,0.0,0.0,0.0,0.0,0.0,0.0,0.0,-0.061,-0.324,-1.008,0.0,0.0,0.0,0.0,0.0,0.0,0.0,0.0,0.0
1614051069.0145686,152,1614051068,832139253,odom,0.0,0.0,0.0,1.0,0.0,0.0,0.0,0.0,0.0,0.0,0.0,0.0,0.0,0.0,0.0,0.0,0.0,0.0,0.0,0.0,0.0,0.0,0.0,0.0,0.0,-0.05,-0.032,-0.641,0.0,0.0,0.0,0.0,0.0,0.0,0.0,0.0,0.0
1614051069.20928,153,1614051069,37466764,odom,0.0,0.0,0.0,1.0,0.0,0.0,0.0,0.0,0.0,0.0,0.0,0.0,0.0,0.0,0.0,0.0,0.0,0.0,0.0,0.0,0.0,0.0,0.0,0.0,0.0,0.114,0.092,-0.793,0.0,0.0,0.0,0.0,0.0,0.0,0.0,0.0,0.0
1614051069.4183977,154,1614051069,249759197,odom,0.0,0.0,0.0,1.0,0.0,0.0,0.0,0.0,0.0,0.0,0.0,0.0,0.0,0.0,0.0,0.0,0.0,0.0,0.0,0.0,0.0,0.0,0.0,0.0,0.0,0.139,0.159,-1.15,0.0,0.0,0.0,0.0,0.0,0.0,0.0,0.0,0.0
1614051069.6093035,155,1614051069,446882009,odom,0.0,0.0,0.0,1.0,0.0,0.0,0.0,0.0,0.0,0.0,0.0,0.0,0.0,0.0,0.0,0.0,0.0,0.0,0.0,0.0,0.0,0.0,0.0,0.0,0.0,-0.072,0.044,-0.79,0.0,0.0,0.0,0.0,0.0,0.0,0.0,0.0,0.0
1614051069.8106399,156,1614051069,632408142,odom,0.0,0.0,0.0,1.0,0.0,0.0,0.0,0.0,0.0,0.0,0.0,0.0,0.0,0.0,0.0,0.0,0.0,0.0,0.0,0.0,0.0,0.0,0.0,0.0,0.0,0.136,0.122,-0.522,0.0,0.0,0.0,0.0,0.0,0.0,0.0,0.0,0.0
1614051070.0100784,157,1614051069,834406614,odom,0.0,0.0,0.0,1.0,0.0,0.0,0.0,0.0,0.0,0.0,0.0,0.0,0.0,0.0,0.0,0.0,0.0,0.0,0.0,0.0,0.0,0.0,0.0,0.0,0.0,-0.073,-0.122,-1.217,0.0,0.0,0.0,0.0,0.0,0.0,0.0,0.0,0.0
1614051070.2135305,158,1614051070,55879116,odom,0.0,0.0,0.0,1.0,0.0,0.0,0.0,0.0,0.0,0.0,0.0,0.0,0.0,0.0,0.0,0.0,0.0,0.0,0.0,0.0,0.0,0.0,0.0,0.0,0.0,0.191,0.071,-0.887,0.0,0.0,0.0,0.0,0.0,0.0,0.0,0.0,0.0
1614051070.4134278,159,1614051070,257503509,odom,0.0,0.0,0.0,1.0,0.0,0.0,0.0,0.0,0.0,0.0,0.0,0.0,0.0,0.0,0.0,0.0,0.0,0.0,0.0,0.0,0.0,0.0,0.0,0.0,0.0,0.084,0.0,-0.919,0.0,0.0,0.0,0.0,0.0,0.0,0.0,0.0,0.0
1614051070.6138773,160,1614051070,434937000,odom,0.0,0.0,0.0,1.0,0.0,0.0,0.0,0.0,0.0,0.0,0.0,0.0,0.0,0.0,0.0,0.0,0.0,0.0,0.0,0.0,0.0,0.0,0.0,0.0,0.0,0.15,0.021,-0.947,0.0,0.0,0.0,0.0,0.0,0.0,0.0,0.0,0.0
1614051070.8217819,161,1614051070,649689435,odom,0.0,0.0,0.0,1.0,0.0,0.0,0.0,0.0,0.0,0.0,0.0,0.0,0.0,0.0,0.0,0.0,0.0,0.0,0.0,0.0,0.0,0.0,0.0,0.0,0.0,0.119,0.05,-0.932,0.0,0.0,0.0,0.0,0.0,0.0,0.0,0.0,0.0
1614051071.0254314,162,1614051070,831487178,odom,0.0,0.0,0.0,1.0,0.0,0.0,0.0,0.0,0.0,0.0,0.0,0.0,0.0,0.0,0.0,0.0,0.0,0.0,0.0,0.0,0.0,0.0,0.0,0.0,0.0,0.029,0.023,-1.115,0.0,0.0,0.0,0.0,0.0,0.0,0.0,0.0,0.0
1614051071.224069,163,1614051071,32521963,odom,0.0,0.0,0.0,1.0,0.0,0.0,0.0,0.0,0.0,0.0,0.0,0.0,0.0,0.0,0.0,0.0,0.0,0.0,0.0,0.0,0.0,0.0,0.0,0.0,0.0,-0.013,-0.064,-1.098,0.0,0.0,0.0,0.0,0.0,0.0,0.0,0.0,0.0
1614051071.418486,164,1614051071,251431941,odom,0.0,0.0,0.0,1.0,0.0,0.0,0.0,0.0,0.0,0.0,0.0,0.0,0.0,0.0,0.0,0.0,0.0,0.0,0.0,0.0,0.0,0.0,0.0,0.0,0.0,0.044,0.026,-0.99,0.0,0.0,0.0,0.0,0.0,0.0,0.0,0.0,0.0
1614051071.619301,165,1614051071,463299989,odom,0.0,0.0,0.0,1.0,0.0,0.0,0.0,0.0,0.0,0.0,0.0,0.0,0.0,0.0,0.0,0.0,0.0,0.0,0.0,0.0,0.0,0.0,0.0,0.0,0.0,-0.019,0.087,-0.648,0.0,0.0,0.0,0.0,0.0,0.0,0.0,0.0,0.0
1614051071.8196635,166,1614051071,652770280,odom,0.0,0.0,0.0,1.0,0.0,0.0,0.0,0.0,0.0,0.0,0.0,0.0,0.0,0.0,0.0,0.0,0.0,0.0,0.0,0.0,0.0,0.0,0.0,0.0,0.0,0.046,-0.066,-0.764,0.0,0.0,0.0,0.0,0.0,0.0,0.0,0.0,0.0
1614051072.0231464,167,1614051071,855147361,odom,0.0,0.0,0.0,1.0,0.0,0.0,0.0,0.0,0.0,0.0,0.0,0.0,0.0,0.0,0.0,0.0,0.0,0.0,0.0,0.0,0.0,0.0,0.0,0.0,0.0,-0.031,-0.087,-1.018,0.0,0.0,0.0,0.0,0.0,0.0,0.0,0.0,0.0
1614051072.225451,168,1614051072,45592308,odom,0.0,0.0,0.0,1.0,0.0,0.0,0.0,0.0,0.0,0.0,0.0,0.0,0.0,0.0,0.0,0.0,0.0,0.0,0.0,0.0,0.0,0.0,0.0,0.0,0.0,0.042,-0.076,-0.854,0.0,0.0,0.0,0.0,0.0,0.0,0.0,0.0,0.0
1614051072.4261944,169,1614051072,244350433,odom,0.0,0.0,0.0,1.0,0.0,0.0,0.0,0.0,0.0,0.0,0.0,0.0,0.0,0.0,0.0,0.0,0.0,0.0,0.0,0.0,0.0,0.0,0.0,0.0,0.0,0.012,0.044,-1.2,0.0,0.0,0.0,0.0,0.0,0.0,0.0,0.0,0.0
1614051072.6188474,170,1614051072,442165851,odom,0.0,0.0,0.0,1.0,0.0,0.0,0.0,0.0,0.0,0.0,0.0,0.0,0.0,0.0,0.0,0.0,0.0,0.0,0.0,0.0,0.0,0.0,0.0,0.0,0.0,0.105,0.072,-0.85,0.0,0.0,0.0,0.0,0.0,0.0,0.0,0.0,0.0
1614051072.8191345,171,1614051072,659297466,odom,0.0,0.0,0.0,1.0,0.0,0.0,0.0,0.0,0.0,0.0,0.0,0.0,0.0,0.0,0.0,0.0,0.0,0.0,0.0,0.0,0.0,0.0,0.0,0.0,0.0,-0.135,-0.102,-1.188,0.0,0.0,0.0,0.0,0.0,0.0,0.0,0.0,0.0
1614051073.0311322,172,1614051072,853024959,odom,0.0,0.0,0.0,1.0,0.0,0.0,0.0,0.0,0.0,0.0,0.0,0.0,0.0,0.0,0.0,0.0,0.0,0.0,0.0,0.0,0.0,0.0,0.0,0.0,0.0,-0.212,-0.001,-0.956,0.0,0.0,0.0,0.0,0.0,0.0,0.0,0.0,0.0
1614051073.2239637,173,1614051073,39074659,odom,0.0,0.0,0.0,1.0,0.0,0.0,0.0,0.0,0.0,0.0,0.0,0.0,0.0,0.0,0.0,0.0,0.0,0.0,0.0,0.0,0.0,0.0,0.0,0.0,0.0,-0.148,0.032,-0.936,0.0,0.0,0.0,0.0,0.0,0.0,0.0,0.0,0.0
1614051073.4324687,174,1614051073,238896369,odom,0.0,0.0,0.0,1.0,0.0,0.0,0.0,0.0,0.0,0.0,0.0,0.0,0.0,0.0,0.0,0.0,0.0,0.0,0.0,0.0,0.0,0.0,0.0,0.0,0.0,0.045,0.08,-0.679,0.0,0.0,0.0,0.0,0.0,0.0,0.0,0.0,0.0
1614051073.6220093,175,1614051073,453250885,odom,0.0,0.0,0.0,1.0,0.0,0.0,0.0,0.0,0.0,0.0,0.0,0.0,0.0,0.0,0.0,0.0,0.0,0.0,0.0,0.0,0.0,0.0,0.0,0.0,0.0,-0.069,-0.197,-1.453,0.0,0.0,0.0,0.0,0.0,0.0,0.0,0.0,0.0
1614051073.8222544,176,1614051073,658616781,odom,0.0,0.0,0.0,1.0,0.0,0.0,0.0,0.0,0.0,0.0,0.0,0.0,0.0,0.0,0.0,0.0,0.0,0.0,0.0,0.0,0.0,0.0,0.0,0.0,0.0,0.112,-0.021,-1.194,0.0,0.0,0.0,0.0,0.0,0.0,0.0,0.0,0.0
1614051074.0334864,177,1614051073,865625619,odom,0.0,0.0,0.0,1.0,0.0,0.0,0.0,0.0,0.0,0.0,0.0,0.0,0.0,0.0,0.0,0.0,0.0,0.0,0.0,0.0,0.0,0.0,0.0,0.0,0.0,0.012,0.218,-0.739,0.0,0.0,0.0,0.0,0.0,0.0,0.0,0.0,0.0
1614051074.2259789,178,1614051074,69354295,odom,0.0,0.0,0.0,1.0,0.0,0.0,0.0,0.0,0.0,0.0,0.0,0.0,0.0,0.0,0.0,0.0,0.0,0.0,0.0,0.0,0.0,0.0,0.0,0.0,0.0,0.05,-0.038,-0.994,0.0,0.0,0.0,0.0,0.0,0.0,0.0,0.0,0.0
1614051074.424524,179,1614051074,252583026,odom,0.0,0.0,0.0,1.0,0.0,0.0,0.0,0.0,0.0,0.0,0.0,0.0,0.0,0.0,0.0,0.0,0.0,0.0,0.0,0.0,0.0,0.0,0.0,0.0,0.0,-0.097,0.005,-0.708,0.0,0.0,0.0,0.0,0.0,0.0,0.0,0.0,0.0
1614051074.633507,180,1614051074,448548316,odom,0.0,0.0,0.0,1.0,0.0,0.0,0.0,0.0,0.0,0.0,0.0,0.0,0.0,0.0,0.0,0.0,0.0,0.0,0.0,0.0,0.0,0.0,0.0,0.0,0.0,-0.072,-0.207,-1.272,0.0,0.0,0.0,0.0,0.0,0.0,0.0,0.0,0.0
1614051074.8289998,181,1614051074,647350788,odom,0.0,0.0,0.0,1.0,0.0,0.0,0.0,0.0,0.0,0.0,0.0,0.0,0.0,0.0,0.0,0.0,0.0,0.0,0.0,0.0,0.0,0.0,0.0,0.0,0.0,-0.103,-0.219,-0.698,0.0,0.0,0.0,0.0,0.0,0.0,0.0,0.0,0.0
1614051075.032719,182,1614051074,859640359,odom,0.0,0.0,0.0,1.0,0.0,0.0,0.0,0.0,0.0,0.0,0.0,0.0,0.0,0.0,0.0,0.0,0.0,0.0,0.0,0.0,0.0,0.0,0.0,0.0,0.0,-0.1,0.035,-0.833,0.0,0.0,0.0,0.0,0.0,0.0,0.0,0.0,0.0
1614051075.2452412,183,1614051075,67739248,odom,0.0,0.0,0.0,1.0,0.0,0.0,0.0,0.0,0.0,0.0,0.0,0.0,0.0,0.0,0.0,0.0,0.0,0.0,0.0,0.0,0.0,0.0,0.0,0.0,0.0,0.019,-0.166,-0.806,0.0,0.0,0.0,0.0,0.0,0.0,0.0,0.0,0.0
1614051075.4273684,184,1614051075,280124425,odom,0.0,0.0,0.0,1.0,0.0,0.0,0.0,0.0,0.0,0.0,0.0,0.0,0.0,0.0,0.0,0.0,0.0,0.0,0.0,0.0,0.0,0.0,0.0,0.0,0.0,0.023,-0.123,-1.266,0.0,0.0,0.0,0.0,0.0,0.0,0.0,0.0,0.0
1614051075.6282003,185,1614051075,464382648,odom,0.0,0.0,0.0,1.0,0.0,0.0,0.0,0.0,0.0,0.0,0.0,0.0,0.0,0.0,0.0,0.0,0.0,0.0,0.0,0.0,0.0,0.0,0.0,0.0,0.0,0.306,-0.079,-0.857,0.0,0.0,0.0,0.0,0.0,0.0,0.0,0.0,0.0
1614051075.8368702,186,1614051075,650450229,odom,0.0,0.0,0.0,1.0,0.0,0.0,0.0,0.0,0.0,0.0,0.0,0.0,0.0,0.0,0.0,0.0,0.0,0.0,0.0,0.0,0.0,0.0,0.0,0.0,0.0,0.086,-0.076,-0.9,0.0,0.0,0.0,0.0,0.0,0.0,0.0,0.0,0.0
1614051076.0352314,187,1614051075,871304750,odom,0.0,0.0,0.0,1.0,0.0,0.0,0.0,0.0,0.0,0.0,0.0,0.0,0.0,0.0,0.0,0.0,0.0,0.0,0.0,0.0,0.0,0.0,0.0,0.0,0.0,0.039,-0.011,-0.991,0.0,0.0,0.0,0.0,0.0,0.0,0.0,0.0,0.0
1614051076.2441034,188,1614051076,65319776,odom,0.0,0.0,0.0,1.0,0.0,0.0,0.0,0.0,0.0,0.0,0.0,0.0,0.0,0.0,0.0,0.0,0.0,0.0,0.0,0.0,0.0,0.0,0.0,0.0,0.0,0.032,-0.072,-0.992,0.0,0.0,0.0,0.0,0.0,0.0,0.0,0.0,0.0
1614051076.429471,189,1614051076,268532991,odom,0.0,0.0,0.0,1.0,0.0,0.0,0.0,0.0,0.0,0.0,0.0,0.0,0.0,0.0,0.0,0.0,0.0,0.0,0.0,0.0,0.0,0.0,0.0,0.0,0.0,-0.006,-0.101,-1.125,0.0,0.0,0.0,0.0,0.0,0.0,0.0,0.0,0.0
1614051076.6350741,190,1614051076,485974788,odom,0.0,0.0,0.0,1.0,0.0,0.0,0.0,0.0,0.0,0.0,0.0,0.0,0.0,0.0,0.0,0.0,0.0,0.0,0.0,0.0,0.0,0.0,0.0,0.0,0.0,-0.076,-0.113,-0.915,0.0,0.0,0.0,0.0,0.0,0.0,0.0,0.0,0.0
1614051076.8317602,191,1614051076,656067609,odom,0.0,0.0,0.0,1.0,0.0,0.0,0.0,0.0,0.0,0.0,0.0,0.0,0.0,0.0,0.0,0.0,0.0,0.0,0.0,0.0,0.0,0.0,0.0,0.0,0.0,-0.079,-0.09,-0.665,0.0,0.0,0.0,0.0,0.0,0.0,0.0,0.0,0.0
1614051077.0319343,192,1614051076,847572565,odom,0.0,0.0,0.0,1.0,0.0,0.0,0.0,0.0,0.0,0.0,0.0,0.0,0.0,0.0,0.0,0.0,0.0,0.0,0.0,0.0,0.0,0.0,0.0,0.0,0.0,0.151,-0.082,-0.808,0.0,0.0,0.0,0.0,0.0,0.0,0.0,0.0,0.0
1614051077.2281556,193,1614051077,48822879,odom,0.0,0.0,0.0,1.0,0.0,0.0,0.0,0.0,0.0,0.0,0.0,0.0,0.0,0.0,0.0,0.0,0.0,0.0,0.0,0.0,0.0,0.0,0.0,0.0,0.0,0.061,-0.003,-0.973,0.0,0.0,0.0,0.0,0.0,0.0,0.0,0.0,0.0
1614051077.4334717,194,1614051077,250850915,odom,0.0,0.0,0.0,1.0,0.0,0.0,0.0,0.0,0.0,0.0,0.0,0.0,0.0,0.0,0.0,0.0,0.0,0.0,0.0,0.0,0.0,0.0,0.0,0.0,0.0,0.125,0.046,-1.209,0.0,0.0,0.0,0.0,0.0,0.0,0.0,0.0,0.0
1614051077.6311958,195,1614051077,478036403,odom,0.0,0.0,0.0,1.0,0.0,0.0,0.0,0.0,0.0,0.0,0.0,0.0,0.0,0.0,0.0,0.0,0.0,0.0,0.0,0.0,0.0,0.0,0.0,0.0,0.0,0.047,0.029,-0.853,0.0,0.0,0.0,0.0,0.0,0.0,0.0,0.0,0.0
1614051077.8287926,196,1614051077,661413192,odom,0.0,0.0,0.0,1.0,0.0,0.0,0.0,0.0,0.0,0.0,0.0,0.0,0.0,0.0,0.0,0.0,0.0,0.0,0.0,0.0,0.0,0.0,0.0,0.0,0.0,-0.102,-0.048,-0.888,0.0,0.0,0.0,0.0,0.0,0.0,0.0,0.0,0.0
1614051078.0318253,197,1614051077,854559421,odom,0.0,0.0,0.0,1.0,0.0,0.0,0.0,0.0,0.0,0.0,0.0,0.0,0.0,0.0,0.0,0.0,0.0,0.0,0.0,0.0,0.0,0.0,0.0,0.0,0.0,0.066,0.169,-1.099,0.0,0.0,0.0,0.0,0.0,0.0,0.0,0.0,0.0
1614051078.2597,198,1614051078,55785655,odom,0.0,0.0,0.0,1.0,0.0,0.0,0.0,0.0,0.0,0.0,0.0,0.0,0.0,0.0,0.0,0.0,0.0,0.0,0.0,0.0,0.0,0.0,0.0,0.0,0.0,-0.113,-0.151,-1.145,0.0,0.0,0.0,0.0,0.0,0.0,0.0,0.0,0.0
1614051078.4445934,199,1614051078,262500762,odom,0.0,0.0,0.0,1.0,0.0,0.0,0.0,0.0,0.0,0.0,0.0,0.0,0.0,0.0,0.0,0.0,0.0,0.0,0.0,0.0,0.0,0.0,0.0,0.0,0.0,0.001,-0.024,-0.941,0.0,0.0,0.0,0.0,0.0,0.0,0.0,0.0,0.0
1614051078.6356409,200,1614051078,473776340,odom,0.0,0.0,0.0,1.0,0.0,0.0,0.0,0.0,0.0,0.0,0.0,0.0,0.0,0.0,0.0,0.0,0.0,0.0,0.0,0.0,0.0,0.0,0.0,0.0,0.0,0.011,-0.017,-0.923,0.0,0.0,0.0,0.0,0.0,0.0,0.0,0.0,0.0
1614051078.8343935,201,1614051078,662987232,odom,0.0,0.0,0.0,1.0,0.0,0.0,0.0,0.0,0.0,0.0,0.0,0.0,0.0,0.0,0.0,0.0,0.0,0.0,0.0,0.0,0.0,0.0,0.0,0.0,0.0,0.103,0.028,-0.69,0.0,0.0,0.0,0.0,0.0,0.0,0.0,0.0,0.0
1614051079.23896,202,1614051079,61668634,odom,0.0,0.0,0.0,1.0,0.0,0.0,0.0,0.0,0.0,0.0,0.0,0.0,0.0,0.0,0.0,0.0,0.0,0.0,0.0,0.0,0.0,0.0,0.0,0.0,0.0,-0.097,0.143,-1.157,0.0,0.0,0.0,0.0,0.0,0.0,0.0,0.0,0.0
1614051079.4370904,203,1614051079,264546155,odom,0.0,0.0,0.0,1.0,0.0,0.0,0.0,0.0,0.0,0.0,0.0,0.0,0.0,0.0,0.0,0.0,0.0,0.0,0.0,0.0,0.0,0.0,0.0,0.0,0.0,0.223,-0.193,-0.865,0.0,0.0,0.0,0.0,0.0,0.0,0.0,0.0,0.0
1614051079.633727,204,1614051079,467273473,odom,0.0,0.0,0.0,1.0,0.0,0.0,0.0,0.0,0.0,0.0,0.0,0.0,0.0,0.0,0.0,0.0,0.0,0.0,0.0,0.0,0.0,0.0,0.0,0.0,0.0,-0.107,-0.406,-1.416,0.0,0.0,0.0,0.0,0.0,0.0,0.0,0.0,0.0
1614051079.8345852,205,1614051079,668283700,odom,0.0,0.0,0.0,1.0,0.0,0.0,0.0,0.0,0.0,0.0,0.0,0.0,0.0,0.0,0.0,0.0,0.0,0.0,0.0,0.0,0.0,0.0,0.0,0.0,0.0,-0.162,-0.29,-1.005,0.0,0.0,0.0,0.0,0.0,0.0,0.0,0.0,0.0
1614051080.037075,206,1614051079,862034082,odom,0.0,0.0,0.0,1.0,0.0,0.0,0.0,0.0,0.0,0.0,0.0,0.0,0.0,0.0,0.0,0.0,0.0,0.0,0.0,0.0,0.0,0.0,0.0,0.0,0.0,-0.101,-0.24,-0.63,0.0,0.0,0.0,0.0,0.0,0.0,0.0,0.0,0.0
1614051080.2336738,207,1614051080,74843406,odom,0.0,0.0,0.0,1.0,0.0,0.0,0.0,0.0,0.0,0.0,0.0,0.0,0.0,0.0,0.0,0.0,0.0,0.0,0.0,0.0,0.0,0.0,0.0,0.0,0.0,0.092,0.186,-1.423,0.0,0.0,0.0,0.0,0.0,0.0,0.0,0.0,0.0
1614051080.433331,208,1614051080,278913497,odom,0.0,0.0,0.0,1.0,0.0,0.0,0.0,0.0,0.0,0.0,0.0,0.0,0.0,0.0,0.0,0.0,0.0,0.0,0.0,0.0,0.0,0.0,0.0,0.0,0.0,-0.328,0.339,-1.027,0.0,0.0,0.0,0.0,0.0,0.0,0.0,0.0,0.0
1614051080.6342216,209,1614051080,461862325,odom,0.0,0.0,0.0,1.0,0.0,0.0,0.0,0.0,0.0,0.0,0.0,0.0,0.0,0.0,0.0,0.0,0.0,0.0,0.0,0.0,0.0,0.0,0.0,0.0,0.0,0.113,-0.08,-0.516,0.0,0.0,0.0,0.0,0.0,0.0,0.0,0.0,0.0
1614051080.8354478,210,1614051080,670374155,odom,0.0,0.0,0.0,1.0,0.0,0.0,0.0,0.0,0.0,0.0,0.0,0.0,0.0,0.0,0.0,0.0,0.0,0.0,0.0,0.0,0.0,0.0,0.0,0.0,0.0,0.154,0.156,-0.674,0.0,0.0,0.0,0.0,0.0,0.0,0.0,0.0,0.0
1614051081.039324,211,1614051080,870990276,odom,0.0,0.0,0.0,1.0,0.0,0.0,0.0,0.0,0.0,0.0,0.0,0.0,0.0,0.0,0.0,0.0,0.0,0.0,0.0,0.0,0.0,0.0,0.0,0.0,0.0,0.25,-0.027,-1.027,0.0,0.0,0.0,0.0,0.0,0.0,0.0,0.0,0.0
1614051081.239496,212,1614051081,72817325,odom,0.0,0.0,0.0,1.0,0.0,0.0,0.0,0.0,0.0,0.0,0.0,0.0,0.0,0.0,0.0,0.0,0.0,0.0,0.0,0.0,0.0,0.0,0.0,0.0,0.0,0.101,-0.044,-0.936,0.0,0.0,0.0,0.0,0.0,0.0,0.0,0.0,0.0
1614051081.4396172,213,1614051081,265885353,odom,0.0,0.0,0.0,1.0,0.0,0.0,0.0,0.0,0.0,0.0,0.0,0.0,0.0,0.0,0.0,0.0,0.0,0.0,0.0,0.0,0.0,0.0,0.0,0.0,0.0,0.076,-0.005,-1.113,0.0,0.0,0.0,0.0,0.0,0.0,0.0,0.0,0.0
1614051081.6446662,214,1614051081,499112606,odom,0.0,0.0,0.0,1.0,0.0,0.0,0.0,0.0,0.0,0.0,0.0,0.0,0.0,0.0,0.0,0.0,0.0,0.0,0.0,0.0,0.0,0.0,0.0,0.0,0.0,-0.109,-0.117,-1.057,0.0,0.0,0.0,0.0,0.0,0.0,0.0,0.0,0.0
1614051081.8425593,215,1614051081,683924198,odom,0.0,0.0,0.0,1.0,0.0,0.0,0.0,0.0,0.0,0.0,0.0,0.0,0.0,0.0,0.0,0.0,0.0,0.0,0.0,0.0,0.0,0.0,0.0,0.0,0.0,0.068,-0.207,-0.652,0.0,0.0,0.0,0.0,0.0,0.0,0.0,0.0,0.0
1614051082.0423334,216,1614051081,880068302,odom,0.0,0.0,0.0,1.0,0.0,0.0,0.0,0.0,0.0,0.0,0.0,0.0,0.0,0.0,0.0,0.0,0.0,0.0,0.0,0.0,0.0,0.0,0.0,0.0,0.0,0.029,0.33,-1.115,0.0,0.0,0.0,0.0,0.0,0.0,0.0,0.0,0.0
1614051082.242373,217,1614051082,94722270,odom,0.0,0.0,0.0,1.0,0.0,0.0,0.0,0.0,0.0,0.0,0.0,0.0,0.0,0.0,0.0,0.0,0.0,0.0,0.0,0.0,0.0,0.0,0.0,0.0,0.0,0.063,-0.144,-0.94,0.0,0.0,0.0,0.0,0.0,0.0,0.0,0.0,0.0
1614051082.4528966,218,1614051082,266457796,odom,0.0,0.0,0.0,1.0,0.0,0.0,0.0,0.0,0.0,0.0,0.0,0.0,0.0,0.0,0.0,0.0,0.0,0.0,0.0,0.0,0.0,0.0,0.0,0.0,0.0,0.106,-0.017,-0.79,0.0,0.0,0.0,0.0,0.0,0.0,0.0,0.0,0.0
1614051082.6472216,219,1614051082,477795124,odom,0.0,0.0,0.0,1.0,0.0,0.0,0.0,0.0,0.0,0.0,0.0,0.0,0.0,0.0,0.0,0.0,0.0,0.0,0.0,0.0,0.0,0.0,0.0,0.0,0.0,0.005,-0.041,-0.826,0.0,0.0,0.0,0.0,0.0,0.0,0.0,0.0,0.0
1614051082.853694,220,1614051082,690186023,odom,0.0,0.0,0.0,1.0,0.0,0.0,0.0,0.0,0.0,0.0,0.0,0.0,0.0,0.0,0.0,0.0,0.0,0.0,0.0,0.0,0.0,0.0,0.0,0.0,0.0,0.069,-0.032,-0.934,0.0,0.0,0.0,0.0,0.0,0.0,0.0,0.0,0.0
1614051083.0483944,221,1614051082,879176139,odom,0.0,0.0,0.0,1.0,0.0,0.0,0.0,0.0,0.0,0.0,0.0,0.0,0.0,0.0,0.0,0.0,0.0,0.0,0.0,0.0,0.0,0.0,0.0,0.0,0.0,0.101,0.017,-1.152,0.0,0.0,0.0,0.0,0.0,0.0,0.0,0.0,0.0
1614051083.2577157,222,1614051083,68447828,odom,0.0,0.0,0.0,1.0,0.0,0.0,0.0,0.0,0.0,0.0,0.0,0.0,0.0,0.0,0.0,0.0,0.0,0.0,0.0,0.0,0.0,0.0,0.0,0.0,0.0,0.111,0.02,-0.813,0.0,0.0,0.0,0.0,0.0,0.0,0.0,0.0,0.0
1614051084.2797275,223,1614051084,101660013,odom,0.0,0.0,0.0,1.0,0.0,0.0,0.0,0.0,0.0,0.0,0.0,0.0,0.0,0.0,0.0,0.0,0.0,0.0,0.0,0.0,0.0,0.0,0.0,0.0,0.0,-0.041,0.04,-0.686,0.0,0.0,0.0,0.0,0.0,0.0,0.0,0.0,0.0
1614051084.686324,224,1614051084,523950099,odom,0.0,0.0,0.0,1.0,0.0,0.0,0.0,0.0,0.0,0.0,0.0,0.0,0.0,0.0,0.0,0.0,0.0,0.0,0.0,0.0,0.0,0.0,0.0,0.0,0.0,-0.012,0.027,-1.198,0.0,0.0,0.0,0.0,0.0,0.0,0.0,0.0,0.0
1614051084.8829455,225,1614051084,742303133,odom,0.0,0.0,0.0,1.0,0.0,0.0,0.0,0.0,0.0,0.0,0.0,0.0,0.0,0.0,0.0,0.0,0.0,0.0,0.0,0.0,0.0,0.0,0.0,0.0,0.0,0.124,-0.053,-0.792,0.0,0.0,0.0,0.0,0.0,0.0,0.0,0.0,0.0
1614051085.0888155,226,1614051084,905413150,odom,0.0,0.0,0.0,1.0,0.0,0.0,0.0,0.0,0.0,0.0,0.0,0.0,0.0,0.0,0.0,0.0,0.0,0.0,0.0,0.0,0.0,0.0,0.0,0.0,0.0,0.016,-0.063,-0.858,0.0,0.0,0.0,0.0,0.0,0.0,0.0,0.0,0.0
1614051085.291261,227,1614051085,112968444,odom,0.0,0.0,0.0,1.0,0.0,0.0,0.0,0.0,0.0,0.0,0.0,0.0,0.0,0.0,0.0,0.0,0.0,0.0,0.0,0.0,0.0,0.0,0.0,0.0,0.0,0.176,-0.007,-0.932,0.0,0.0,0.0,0.0,0.0,0.0,0.0,0.0,0.0
1614051085.4903872,228,1614051085,306087732,odom,0.0,0.0,0.0,1.0,0.0,0.0,0.0,0.0,0.0,0.0,0.0,0.0,0.0,0.0,0.0,0.0,0.0,0.0,0.0,0.0,0.0,0.0,0.0,0.0,0.0,0.095,-0.038,-0.893,0.0,0.0,0.0,0.0,0.0,0.0,0.0,0.0,0.0
1614051085.695603,229,1614051085,524845123,odom,0.0,0.0,0.0,1.0,0.0,0.0,0.0,0.0,0.0,0.0,0.0,0.0,0.0,0.0,0.0,0.0,0.0,0.0,0.0,0.0,0.0,0.0,0.0,0.0,0.0,0.042,0.0,-0.936,0.0,0.0,0.0,0.0,0.0,0.0,0.0,0.0,0.0
1614051085.9032354,230,1614051085,713379383,odom,0.0,0.0,0.0,1.0,0.0,0.0,0.0,0.0,0.0,0.0,0.0,0.0,0.0,0.0,0.0,0.0,0.0,0.0,0.0,0.0,0.0,0.0,0.0,0.0,0.0,0.053,-0.015,-0.939,0.0,0.0,0.0,0.0,0.0,0.0,0.0,0.0,0.0
1614051086.1106274,231,1614051085,919697046,odom,0.0,0.0,0.0,1.0,0.0,0.0,0.0,0.0,0.0,0.0,0.0,0.0,0.0,0.0,0.0,0.0,0.0,0.0,0.0,0.0,0.0,0.0,0.0,0.0,0.0,0.02,-0.018,-0.94,0.0,0.0,0.0,0.0,0.0,0.0,0.0,0.0,0.0
1614051086.2995179,232,1614051086,153132200,odom,0.0,0.0,0.0,1.0,0.0,0.0,0.0,0.0,0.0,0.0,0.0,0.0,0.0,0.0,0.0,0.0,0.0,0.0,0.0,0.0,0.0,0.0,0.0,0.0,0.0,0.029,-0.02,-0.936,0.0,0.0,0.0,0.0,0.0,0.0,0.0,0.0,0.0
1614051086.5099595,233,1614051086,346658229,odom,0.0,0.0,0.0,1.0,0.0,0.0,0.0,0.0,0.0,0.0,0.0,0.0,0.0,0.0,0.0,0.0,0.0,0.0,0.0,0.0,0.0,0.0,0.0,0.0,0.0,0.026,-0.019,-0.937,0.0,0.0,0.0,0.0,0.0,0.0,0.0,0.0,0.0
1614051086.7075367,234,1614051086,533287525,odom,0.0,0.0,0.0,1.0,0.0,0.0,0.0,0.0,0.0,0.0,0.0,0.0,0.0,0.0,0.0,0.0,0.0,0.0,0.0,0.0,0.0,0.0,0.0,0.0,0.0,0.025,-0.019,-0.938,0.0,0.0,0.0,0.0,0.0,0.0,0.0,0.0,0.0
1614051086.906983,235,1614051086,725378036,odom,0.0,0.0,0.0,1.0,0.0,0.0,0.0,0.0,0.0,0.0,0.0,0.0,0.0,0.0,0.0,0.0,0.0,0.0,0.0,0.0,0.0,0.0,0.0,0.0,0.0,0.027,-0.021,-0.938,0.0,0.0,0.0,0.0,0.0,0.0,0.0,0.0,0.0
1614051087.1038368,236,1614051086,932804822,odom,0.0,0.0,0.0,1.0,0.0,0.0,0.0,0.0,0.0,0.0,0.0,0.0,0.0,0.0,0.0,0.0,0.0,0.0,0.0,0.0,0.0,0.0,0.0,0.0,0.0,0.028,-0.02,-0.936,0.0,0.0,0.0,0.0,0.0,0.0,0.0,0.0,0.0
1614051087.309543,237,1614051087,156873464,odom,0.0,0.0,0.0,1.0,0.0,0.0,0.0,0.0,0.0,0.0,0.0,0.0,0.0,0.0,0.0,0.0,0.0,0.0,0.0,0.0,0.0,0.0,0.0,0.0,0.0,0.028,-0.019,-0.936,0.0,0.0,0.0,0.0,0.0,0.0,0.0,0.0,0.0
1614051087.5135431,238,1614051087,333894491,odom,0.0,0.0,0.0,1.0,0.0,0.0,0.0,0.0,0.0,0.0,0.0,0.0,0.0,0.0,0.0,0.0,0.0,0.0,0.0,0.0,0.0,0.0,0.0,0.0,0.0,0.026,-0.021,-0.938,0.0,0.0,0.0,0.0,0.0,0.0,0.0,0.0,0.0
1614051087.7061887,239,1614051087,541818380,odom,0.0,0.0,0.0,1.0,0.0,0.0,0.0,0.0,0.0,0.0,0.0,0.0,0.0,0.0,0.0,0.0,0.0,0.0,0.0,0.0,0.0,0.0,0.0,0.0,0.0,0.028,-0.02,-0.938,0.0,0.0,0.0,0.0,0.0,0.0,0.0,0.0,0.0
1614051087.9095092,240,1614051087,739115238,odom,0.0,0.0,0.0,1.0,0.0,0.0,0.0,0.0,0.0,0.0,0.0,0.0,0.0,0.0,0.0,0.0,0.0,0.0,0.0,0.0,0.0,0.0,0.0,0.0,0.0,0.026,-0.02,-0.939,0.0,0.0,0.0,0.0,0.0,0.0,0.0,0.0,0.0
1614051088.1055515,241,1614051087,933638572,odom,0.0,0.0,0.0,1.0,0.0,0.0,0.0,0.0,0.0,0.0,0.0,0.0,0.0,0.0,0.0,0.0,0.0,0.0,0.0,0.0,0.0,0.0,0.0,0.0,0.0,0.027,-0.02,-0.938,0.0,0.0,0.0,0.0,0.0,0.0,0.0,0.0,0.0
1614051088.3072197,242,1614051088,134145498,odom,0.0,0.0,0.0,1.0,0.0,0.0,0.0,0.0,0.0,0.0,0.0,0.0,0.0,0.0,0.0,0.0,0.0,0.0,0.0,0.0,0.0,0.0,0.0,0.0,0.0,0.028,-0.019,-0.937,0.0,0.0,0.0,0.0,0.0,0.0,0.0,0.0,0.0
1614051088.5055926,243,1614051088,351167917,odom,0.0,0.0,0.0,1.0,0.0,0.0,0.0,0.0,0.0,0.0,0.0,0.0,0.0,0.0,0.0,0.0,0.0,0.0,0.0,0.0,0.0,0.0,0.0,0.0,0.0,0.027,-0.023,-0.934,0.0,0.0,0.0,0.0,0.0,0.0,0.0,0.0,0.0
1614051088.7162097,244,1614051088,532127380,odom,0.0,0.0,0.0,1.0,0.0,0.0,0.0,0.0,0.0,0.0,0.0,0.0,0.0,0.0,0.0,0.0,0.0,0.0,0.0,0.0,0.0,0.0,0.0,0.0,0.0,0.029,-0.019,-0.938,0.0,0.0,0.0,0.0,0.0,0.0,0.0,0.0,0.0
1614051088.9194894,245,1614051088,739997863,odom,0.0,0.0,0.0,1.0,0.0,0.0,0.0,0.0,0.0,0.0,0.0,0.0,0.0,0.0,0.0,0.0,0.0,0.0,0.0,0.0,0.0,0.0,0.0,0.0,0.0,0.027,-0.02,-0.935,0.0,0.0,0.0,0.0,0.0,0.0,0.0,0.0,0.0
1614051089.1059363,246,1614051088,948274374,odom,0.0,0.0,0.0,1.0,0.0,0.0,0.0,0.0,0.0,0.0,0.0,0.0,0.0,0.0,0.0,0.0,0.0,0.0,0.0,0.0,0.0,0.0,0.0,0.0,0.0,0.029,-0.018,-0.933,0.0,0.0,0.0,0.0,0.0,0.0,0.0,0.0,0.0
1614051089.3046486,247,1614051089,139251708,odom,0.0,0.0,0.0,1.0,0.0,0.0,0.0,0.0,0.0,0.0,0.0,0.0,0.0,0.0,0.0,0.0,0.0,0.0,0.0,0.0,0.0,0.0,0.0,0.0,0.0,0.026,-0.018,-0.936,0.0,0.0,0.0,0.0,0.0,0.0,0.0,0.0,0.0
1614051089.7062225,248,1614051089,537282705,odom,0.0,0.0,0.0,1.0,0.0,0.0,0.0,0.0,0.0,0.0,0.0,0.0,0.0,0.0,0.0,0.0,0.0,0.0,0.0,0.0,0.0,0.0,0.0,0.0,0.0,0.026,-0.019,-0.939,0.0,0.0,0.0,0.0,0.0,0.0,0.0,0.0,0.0
1614051089.9183946,249,1614051089,739522218,odom,0.0,0.0,0.0,1.0,0.0,0.0,0.0,0.0,0.0,0.0,0.0,0.0,0.0,0.0,0.0,0.0,0.0,0.0,0.0,0.0,0.0,0.0,0.0,0.0,0.0,0.029,-0.02,-0.938,0.0,0.0,0.0,0.0,0.0,0.0,0.0,0.0,0.0
1614051090.1068826,250,1614051089,939056873,odom,0.0,0.0,0.0,1.0,0.0,0.0,0.0,0.0,0.0,0.0,0.0,0.0,0.0,0.0,0.0,0.0,0.0,0.0,0.0,0.0,0.0,0.0,0.0,0.0,0.0,0.028,-0.02,-0.935,0.0,0.0,0.0,0.0,0.0,0.0,0.0,0.0,0.0
1614051090.3153336,251,1614051090,154191255,odom,0.0,0.0,0.0,1.0,0.0,0.0,0.0,0.0,0.0,0.0,0.0,0.0,0.0,0.0,0.0,0.0,0.0,0.0,0.0,0.0,0.0,0.0,0.0,0.0,0.0,0.028,-0.022,-0.935,0.0,0.0,0.0,0.0,0.0,0.0,0.0,0.0,0.0
1614051090.5133224,252,1614051090,337450742,odom,0.0,0.0,0.0,1.0,0.0,0.0,0.0,0.0,0.0,0.0,0.0,0.0,0.0,0.0,0.0,0.0,0.0,0.0,0.0,0.0,0.0,0.0,0.0,0.0,0.0,0.03,-0.019,-0.936,0.0,0.0,0.0,0.0,0.0,0.0,0.0,0.0,0.0
1614051090.7102983,253,1614051090,543678522,odom,0.0,0.0,0.0,1.0,0.0,0.0,0.0,0.0,0.0,0.0,0.0,0.0,0.0,0.0,0.0,0.0,0.0,0.0,0.0,0.0,0.0,0.0,0.0,0.0,0.0,0.026,-0.022,-0.939,0.0,0.0,0.0,0.0,0.0,0.0,0.0,0.0,0.0
1614051090.9288294,254,1614051090,745325326,odom,0.0,0.0,0.0,1.0,0.0,0.0,0.0,0.0,0.0,0.0,0.0,0.0,0.0,0.0,0.0,0.0,0.0,0.0,0.0,0.0,0.0,0.0,0.0,0.0,0.0,0.025,-0.02,-0.934,0.0,0.0,0.0,0.0,0.0,0.0,0.0,0.0,0.0
1614051091.1149132,255,1614051090,948459625,odom,0.0,0.0,0.0,1.0,0.0,0.0,0.0,0.0,0.0,0.0,0.0,0.0,0.0,0.0,0.0,0.0,0.0,0.0,0.0,0.0,0.0,0.0,0.0,0.0,0.0,0.026,-0.02,-0.936,0.0,0.0,0.0,0.0,0.0,0.0,0.0,0.0,0.0
1614051091.3071637,256,1614051091,148499250,odom,0.0,0.0,0.0,1.0,0.0,0.0,0.0,0.0,0.0,0.0,0.0,0.0,0.0,0.0,0.0,0.0,0.0,0.0,0.0,0.0,0.0,0.0,0.0,0.0,0.0,0.028,-0.019,-0.939,0.0,0.0,0.0,0.0,0.0,0.0,0.0,0.0,0.0
1614051091.5074813,257,1614051091,337739706,odom,0.0,0.0,0.0,1.0,0.0,0.0,0.0,0.0,0.0,0.0,0.0,0.0,0.0,0.0,0.0,0.0,0.0,0.0,0.0,0.0,0.0,0.0,0.0,0.0,0.0,0.028,-0.022,-0.934,0.0,0.0,0.0,0.0,0.0,0.0,0.0,0.0,0.0
1614051091.7102633,258,1614051091,543104171,odom,0.0,0.0,0.0,1.0,0.0,0.0,0.0,0.0,0.0,0.0,0.0,0.0,0.0,0.0,0.0,0.0,0.0,0.0,0.0,0.0,0.0,0.0,0.0,0.0,0.0,0.024,-0.019,-0.935,0.0,0.0,0.0,0.0,0.0,0.0,0.0,0.0,0.0
1614051091.9191265,259,1614051091,763394832,odom,0.0,0.0,0.0,1.0,0.0,0.0,0.0,0.0,0.0,0.0,0.0,0.0,0.0,0.0,0.0,0.0,0.0,0.0,0.0,0.0,0.0,0.0,0.0,0.0,0.0,0.026,-0.018,-0.935,0.0,0.0,0.0,0.0,0.0,0.0,0.0,0.0,0.0
1614051092.1128047,260,1614051091,960263967,odom,0.0,0.0,0.0,1.0,0.0,0.0,0.0,0.0,0.0,0.0,0.0,0.0,0.0,0.0,0.0,0.0,0.0,0.0,0.0,0.0,0.0,0.0,0.0,0.0,0.0,0.03,-0.018,-0.936,0.0,0.0,0.0,0.0,0.0,0.0,0.0,0.0,0.0
1614051092.316038,261,1614051092,145731210,odom,0.0,0.0,0.0,1.0,0.0,0.0,0.0,0.0,0.0,0.0,0.0,0.0,0.0,0.0,0.0,0.0,0.0,0.0,0.0,0.0,0.0,0.0,0.0,0.0,0.0,0.024,-0.023,-0.941,0.0,0.0,0.0,0.0,0.0,0.0,0.0,0.0,0.0
1614051092.517895,262,1614051092,347749471,odom,0.0,0.0,0.0,1.0,0.0,0.0,0.0,0.0,0.0,0.0,0.0,0.0,0.0,0.0,0.0,0.0,0.0,0.0,0.0,0.0,0.0,0.0,0.0,0.0,0.0,0.03,-0.025,-0.938,0.0,0.0,0.0,0.0,0.0,0.0,0.0,0.0,0.0
1614051092.72614,263,1614051092,540404081,odom,0.0,0.0,0.0,1.0,0.0,0.0,0.0,0.0,0.0,0.0,0.0,0.0,0.0,0.0,0.0,0.0,0.0,0.0,0.0,0.0,0.0,0.0,0.0,0.0,0.0,0.027,-0.013,-0.939,0.0,0.0,0.0,0.0,0.0,0.0,0.0,0.0,0.0
1614051092.9177701,264,1614051092,743946075,odom,0.0,0.0,0.0,1.0,0.0,0.0,0.0,0.0,0.0,0.0,0.0,0.0,0.0,0.0,0.0,0.0,0.0,0.0,0.0,0.0,0.0,0.0,0.0,0.0,0.0,0.029,-0.022,-0.941,0.0,0.0,0.0,0.0,0.0,0.0,0.0,0.0,0.0
1614051093.119782,265,1614051092,968710184,odom,0.0,0.0,0.0,1.0,0.0,0.0,0.0,0.0,0.0,0.0,0.0,0.0,0.0,0.0,0.0,0.0,0.0,0.0,0.0,0.0,0.0,0.0,0.0,0.0,0.0,0.029,-0.016,-0.935,0.0,0.0,0.0,0.0,0.0,0.0,0.0,0.0,0.0
1614051093.3207471,266,1614051093,141383171,odom,0.0,0.0,0.0,1.0,0.0,0.0,0.0,0.0,0.0,0.0,0.0,0.0,0.0,0.0,0.0,0.0,0.0,0.0,0.0,0.0,0.0,0.0,0.0,0.0,0.0,0.028,-0.02,-0.937,0.0,0.0,0.0,0.0,0.0,0.0,0.0,0.0,0.0
1614051093.522799,267,1614051093,345597267,odom,0.0,0.0,0.0,1.0,0.0,0.0,0.0,0.0,0.0,0.0,0.0,0.0,0.0,0.0,0.0,0.0,0.0,0.0,0.0,0.0,0.0,0.0,0.0,0.0,0.0,0.029,-0.018,-0.932,0.0,0.0,0.0,0.0,0.0,0.0,0.0,0.0,0.0
1614051093.72461,268,1614051093,561618328,odom,0.0,0.0,0.0,1.0,0.0,0.0,0.0,0.0,0.0,0.0,0.0,0.0,0.0,0.0,0.0,0.0,0.0,0.0,0.0,0.0,0.0,0.0,0.0,0.0,0.0,0.028,-0.019,-0.937,0.0,0.0,0.0,0.0,0.0,0.0,0.0,0.0,0.0
1614051093.9238865,269,1614051093,748457193,odom,0.0,0.0,0.0,1.0,0.0,0.0,0.0,0.0,0.0,0.0,0.0,0.0,0.0,0.0,0.0,0.0,0.0,0.0,0.0,0.0,0.0,0.0,0.0,0.0,0.0,0.029,-0.021,-0.938,0.0,0.0,0.0,0.0,0.0,0.0,0.0,0.0,0.0
1614051094.1242616,270,1614051093,986932516,odom,0.0,0.0,0.0,1.0,0.0,0.0,0.0,0.0,0.0,0.0,0.0,0.0,0.0,0.0,0.0,0.0,0.0,0.0,0.0,0.0,0.0,0.0,0.0,0.0,0.0,0.029,-0.023,-0.937,0.0,0.0,0.0,0.0,0.0,0.0,0.0,0.0,0.0
1614051094.3249967,271,1614051094,157957077,odom,0.0,0.0,0.0,1.0,0.0,0.0,0.0,0.0,0.0,0.0,0.0,0.0,0.0,0.0,0.0,0.0,0.0,0.0,0.0,0.0,0.0,0.0,0.0,0.0,0.0,0.028,-0.016,-0.938,0.0,0.0,0.0,0.0,0.0,0.0,0.0,0.0,0.0
1614051094.5256667,272,1614051094,349872350,odom,0.0,0.0,0.0,1.0,0.0,0.0,0.0,0.0,0.0,0.0,0.0,0.0,0.0,0.0,0.0,0.0,0.0,0.0,0.0,0.0,0.0,0.0,0.0,0.0,0.0,0.029,-0.017,-0.935,0.0,0.0,0.0,0.0,0.0,0.0,0.0,0.0,0.0
1614051094.7318816,273,1614051094,571588039,odom,0.0,0.0,0.0,1.0,0.0,0.0,0.0,0.0,0.0,0.0,0.0,0.0,0.0,0.0,0.0,0.0,0.0,0.0,0.0,0.0,0.0,0.0,0.0,0.0,0.0,0.028,-0.022,-0.937,0.0,0.0,0.0,0.0,0.0,0.0,0.0,0.0,0.0
1614051094.9510374,274,1614051094,760103702,odom,0.0,0.0,0.0,1.0,0.0,0.0,0.0,0.0,0.0,0.0,0.0,0.0,0.0,0.0,0.0,0.0,0.0,0.0,0.0,0.0,0.0,0.0,0.0,0.0,0.0,0.027,-0.017,-0.931,0.0,0.0,0.0,0.0,0.0,0.0,0.0,0.0,0.0
1614051095.1354713,275,1614051094,962764501,odom,0.0,0.0,0.0,1.0,0.0,0.0,0.0,0.0,0.0,0.0,0.0,0.0,0.0,0.0,0.0,0.0,0.0,0.0,0.0,0.0,0.0,0.0,0.0,0.0,0.0,0.024,-0.021,-0.94,0.0,0.0,0.0,0.0,0.0,0.0,0.0,0.0,0.0
1614051095.3355632,276,1614051095,154249429,odom,0.0,0.0,0.0,1.0,0.0,0.0,0.0,0.0,0.0,0.0,0.0,0.0,0.0,0.0,0.0,0.0,0.0,0.0,0.0,0.0,0.0,0.0,0.0,0.0,0.0,0.026,-0.026,-0.936,0.0,0.0,0.0,0.0,0.0,0.0,0.0,0.0,0.0
1614051095.543308,277,1614051095,365089178,odom,0.0,0.0,0.0,1.0,0.0,0.0,0.0,0.0,0.0,0.0,0.0,0.0,0.0,0.0,0.0,0.0,0.0,0.0,0.0,0.0,0.0,0.0,0.0,0.0,0.0,0.031,-0.017,-0.936,0.0,0.0,0.0,0.0,0.0,0.0,0.0,0.0,0.0
1614051095.7407424,278,1614051095,562479734,odom,0.0,0.0,0.0,1.0,0.0,0.0,0.0,0.0,0.0,0.0,0.0,0.0,0.0,0.0,0.0,0.0,0.0,0.0,0.0,0.0,0.0,0.0,0.0,0.0,0.0,0.028,-0.019,-0.934,0.0,0.0,0.0,0.0,0.0,0.0,0.0,0.0,0.0
1614051095.9396307,279,1614051095,783305883,odom,0.0,0.0,0.0,1.0,0.0,0.0,0.0,0.0,0.0,0.0,0.0,0.0,0.0,0.0,0.0,0.0,0.0,0.0,0.0,0.0,0.0,0.0,0.0,0.0,0.0,0.029,-0.021,-0.937,0.0,0.0,0.0,0.0,0.0,0.0,0.0,0.0,0.0
1614051096.1556797,280,1614051095,969415426,odom,0.0,0.0,0.0,1.0,0.0,0.0,0.0,0.0,0.0,0.0,0.0,0.0,0.0,0.0,0.0,0.0,0.0,0.0,0.0,0.0,0.0,0.0,0.0,0.0,0.0,0.026,-0.02,-0.936,0.0,0.0,0.0,0.0,0.0,0.0,0.0,0.0,0.0
1614051096.352361,281,1614051096,183840990,odom,0.0,0.0,0.0,1.0,0.0,0.0,0.0,0.0,0.0,0.0,0.0,0.0,0.0,0.0,0.0,0.0,0.0,0.0,0.0,0.0,0.0,0.0,0.0,0.0,0.0,0.027,-0.019,-0.937,0.0,0.0,0.0,0.0,0.0,0.0,0.0,0.0,0.0
1614051096.54236,282,1614051096,387014865,odom,0.0,0.0,0.0,1.0,0.0,0.0,0.0,0.0,0.0,0.0,0.0,0.0,0.0,0.0,0.0,0.0,0.0,0.0,0.0,0.0,0.0,0.0,0.0,0.0,0.0,0.026,-0.021,-0.941,0.0,0.0,0.0,0.0,0.0,0.0,0.0,0.0,0.0
1614051096.7521534,283,1614051096,578466415,odom,0.0,0.0,0.0,1.0,0.0,0.0,0.0,0.0,0.0,0.0,0.0,0.0,0.0,0.0,0.0,0.0,0.0,0.0,0.0,0.0,0.0,0.0,0.0,0.0,0.0,0.027,-0.022,-0.939,0.0,0.0,0.0,0.0,0.0,0.0,0.0,0.0,0.0
1614051096.9415035,284,1614051096,792573451,odom,0.0,0.0,0.0,1.0,0.0,0.0,0.0,0.0,0.0,0.0,0.0,0.0,0.0,0.0,0.0,0.0,0.0,0.0,0.0,0.0,0.0,0.0,0.0,0.0,0.0,0.032,-0.02,-0.936,0.0,0.0,0.0,0.0,0.0,0.0,0.0,0.0,0.0
1614051097.1411715,285,1614051096,979917049,odom,0.0,0.0,0.0,1.0,0.0,0.0,0.0,0.0,0.0,0.0,0.0,0.0,0.0,0.0,0.0,0.0,0.0,0.0,0.0,0.0,0.0,0.0,0.0,0.0,0.0,0.032,-0.017,-0.936,0.0,0.0,0.0,0.0,0.0,0.0,0.0,0.0,0.0
1614051097.3461351,286,1614051097,172582626,odom,0.0,0.0,0.0,1.0,0.0,0.0,0.0,0.0,0.0,0.0,0.0,0.0,0.0,0.0,0.0,0.0,0.0,0.0,0.0,0.0,0.0,0.0,0.0,0.0,0.0,0.03,-0.017,-0.938,0.0,0.0,0.0,0.0,0.0,0.0,0.0,0.0,0.0
1614051097.54516,287,1614051097,384218215,odom,0.0,0.0,0.0,1.0,0.0,0.0,0.0,0.0,0.0,0.0,0.0,0.0,0.0,0.0,0.0,0.0,0.0,0.0,0.0,0.0,0.0,0.0,0.0,0.0,0.0,0.032,-0.02,-0.935,0.0,0.0,0.0,0.0,0.0,0.0,0.0,0.0,0.0
1614051097.7445776,288,1614051097,575033187,odom,0.0,0.0,0.0,1.0,0.0,0.0,0.0,0.0,0.0,0.0,0.0,0.0,0.0,0.0,0.0,0.0,0.0,0.0,0.0,0.0,0.0,0.0,0.0,0.0,0.0,0.028,-0.023,-0.935,0.0,0.0,0.0,0.0,0.0,0.0,0.0,0.0,0.0
1614051097.9470348,289,1614051097,769783020,odom,0.0,0.0,0.0,1.0,0.0,0.0,0.0,0.0,0.0,0.0,0.0,0.0,0.0,0.0,0.0,0.0,0.0,0.0,0.0,0.0,0.0,0.0,0.0,0.0,0.0,0.035,-0.019,-0.925,0.0,0.0,0.0,0.0,0.0,0.0,0.0,0.0,0.0
1614051098.1612031,290,1614051097,975858449,odom,0.0,0.0,0.0,1.0,0.0,0.0,0.0,0.0,0.0,0.0,0.0,0.0,0.0,0.0,0.0,0.0,0.0,0.0,0.0,0.0,0.0,0.0,0.0,0.0,0.0,0.02,-0.027,-0.95,0.0,0.0,0.0,0.0,0.0,0.0,0.0,0.0,0.0
1614051098.3499434,291,1614051098,227197170,odom,0.0,0.0,0.0,1.0,0.0,0.0,0.0,0.0,0.0,0.0,0.0,0.0,0.0,0.0,0.0,0.0,0.0,0.0,0.0,0.0,0.0,0.0,0.0,0.0,0.0,0.034,-0.021,-0.928,0.0,0.0,0.0,0.0,0.0,0.0,0.0,0.0,0.0
1614051098.5520718,292,1614051098,384248495,odom,0.0,0.0,0.0,1.0,0.0,0.0,0.0,0.0,0.0,0.0,0.0,0.0,0.0,0.0,0.0,0.0,0.0,0.0,0.0,0.0,0.0,0.0,0.0,0.0,0.0,0.024,-0.024,-0.947,0.0,0.0,0.0,0.0,0.0,0.0,0.0,0.0,0.0
1614051098.962315,293,1614051098,781558990,odom,0.0,0.0,0.0,1.0,0.0,0.0,0.0,0.0,0.0,0.0,0.0,0.0,0.0,0.0,0.0,0.0,0.0,0.0,0.0,0.0,0.0,0.0,0.0,0.0,0.0,0.025,-0.019,-0.936,0.0,0.0,0.0,0.0,0.0,0.0,0.0,0.0,0.0
1614051099.1710985,294,1614051098,982262372,odom,0.0,0.0,0.0,1.0,0.0,0.0,0.0,0.0,0.0,0.0,0.0,0.0,0.0,0.0,0.0,0.0,0.0,0.0,0.0,0.0,0.0,0.0,0.0,0.0,0.0,0.03,-0.016,-0.934,0.0,0.0,0.0,0.0,0.0,0.0,0.0,0.0,0.0
1614051099.374181,295,1614051099,210453271,odom,0.0,0.0,0.0,1.0,0.0,0.0,0.0,0.0,0.0,0.0,0.0,0.0,0.0,0.0,0.0,0.0,0.0,0.0,0.0,0.0,0.0,0.0,0.0,0.0,0.0,0.033,-0.017,-0.93,0.0,0.0,0.0,0.0,0.0,0.0,0.0,0.0,0.0
1614051099.591939,296,1614051099,401997804,odom,0.0,0.0,0.0,1.0,0.0,0.0,0.0,0.0,0.0,0.0,0.0,0.0,0.0,0.0,0.0,0.0,0.0,0.0,0.0,0.0,0.0,0.0,0.0,0.0,0.0,0.021,-0.019,-0.939,0.0,0.0,0.0,0.0,0.0,0.0,0.0,0.0,0.0
1614051099.7842073,297,1614051099,623565196,odom,0.0,0.0,0.0,1.0,0.0,0.0,0.0,0.0,0.0,0.0,0.0,0.0,0.0,0.0,0.0,0.0,0.0,0.0,0.0,0.0,0.0,0.0,0.0,0.0,0.0,0.031,-0.021,-0.937,0.0,0.0,0.0,0.0,0.0,0.0,0.0,0.0,0.0
1614051099.9854164,298,1614051099,817621469,odom,0.0,0.0,0.0,1.0,0.0,0.0,0.0,0.0,0.0,0.0,0.0,0.0,0.0,0.0,0.0,0.0,0.0,0.0,0.0,0.0,0.0,0.0,0.0,0.0,0.0,0.034,-0.014,-0.923,0.0,0.0,0.0,0.0,0.0,0.0,0.0,0.0,0.0
1614051100.1908543,299,1614051100,1431226,odom,0.0,0.0,0.0,1.0,0.0,0.0,0.0,0.0,0.0,0.0,0.0,0.0,0.0,0.0,0.0,0.0,0.0,0.0,0.0,0.0,0.0,0.0,0.0,0.0,0.0,0.034,-0.013,-0.923,0.0,0.0,0.0,0.0,0.0,0.0,0.0,0.0,0.0
1614051100.3873765,300,1614051100,245524168,odom,0.0,0.0,0.0,1.0,0.0,0.0,0.0,0.0,0.0,0.0,0.0,0.0,0.0,0.0,0.0,0.0,0.0,0.0,0.0,0.0,0.0,0.0,0.0,0.0,0.0,0.021,-0.025,-0.949,0.0,0.0,0.0,0.0,0.0,0.0,0.0,0.0,0.0
1614051100.5921075,301,1614051100,427789449,odom,0.0,0.0,0.0,1.0,0.0,0.0,0.0,0.0,0.0,0.0,0.0,0.0,0.0,0.0,0.0,0.0,0.0,0.0,0.0,0.0,0.0,0.0,0.0,0.0,0.0,0.024,-0.023,-0.946,0.0,0.0,0.0,0.0,0.0,0.0,0.0,0.0,0.0
1614051100.8006709,302,1614051100,617270946,odom,0.0,0.0,0.0,1.0,0.0,0.0,0.0,0.0,0.0,0.0,0.0,0.0,0.0,0.0,0.0,0.0,0.0,0.0,0.0,0.0,0.0,0.0,0.0,0.0,0.0,0.023,-0.02,-0.939,0.0,0.0,0.0,0.0,0.0,0.0,0.0,0.0,0.0
1614051100.9906352,303,1614051100,845168352,odom,0.0,0.0,0.0,1.0,0.0,0.0,0.0,0.0,0.0,0.0,0.0,0.0,0.0,0.0,0.0,0.0,0.0,0.0,0.0,0.0,0.0,0.0,0.0,0.0,0.0,0.033,-0.017,-0.923,0.0,0.0,0.0,0.0,0.0,0.0,0.0,0.0,0.0
1614051101.2008765,304,1614051101,18728256,odom,0.0,0.0,0.0,1.0,0.0,0.0,0.0,0.0,0.0,0.0,0.0,0.0,0.0,0.0,0.0,0.0,0.0,0.0,0.0,0.0,0.0,0.0,0.0,0.0,0.0,0.033,-0.017,-0.923,0.0,0.0,0.0,0.0,0.0,0.0,0.0,0.0,0.0
1614051101.410582,305,1614051101,221086740,odom,0.0,0.0,0.0,1.0,0.0,0.0,0.0,0.0,0.0,0.0,0.0,0.0,0.0,0.0,0.0,0.0,0.0,0.0,0.0,0.0,0.0,0.0,0.0,0.0,0.0,0.033,-0.016,-0.925,0.0,0.0,0.0,0.0,0.0,0.0,0.0,0.0,0.0
1614051101.6060545,306,1614051101,436667203,odom,0.0,0.0,0.0,1.0,0.0,0.0,0.0,0.0,0.0,0.0,0.0,0.0,0.0,0.0,0.0,0.0,0.0,0.0,0.0,0.0,0.0,0.0,0.0,0.0,0.0,0.028,-0.02,-0.944,0.0,0.0,0.0,0.0,0.0,0.0,0.0,0.0,0.0
1614051101.83244,307,1614051101,626177310,odom,0.0,0.0,0.0,1.0,0.0,0.0,0.0,0.0,0.0,0.0,0.0,0.0,0.0,0.0,0.0,0.0,0.0,0.0,0.0,0.0,0.0,0.0,0.0,0.0,0.0,0.027,-0.02,-0.939,0.0,0.0,0.0,0.0,0.0,0.0,0.0,0.0,0.0
1614051102.00575,308,1614051101,833596467,odom,0.0,0.0,0.0,1.0,0.0,0.0,0.0,0.0,0.0,0.0,0.0,0.0,0.0,0.0,0.0,0.0,0.0,0.0,0.0,0.0,0.0,0.0,0.0,0.0,0.0,0.03,-0.02,-0.938,0.0,0.0,0.0,0.0,0.0,0.0,0.0,0.0,0.0
1614051102.2061317,309,1614051102,45988082,odom,0.0,0.0,0.0,1.0,0.0,0.0,0.0,0.0,0.0,0.0,0.0,0.0,0.0,0.0,0.0,0.0,0.0,0.0,0.0,0.0,0.0,0.0,0.0,0.0,0.0,0.03,-0.018,-0.931,0.0,0.0,0.0,0.0,0.0,0.0,0.0,0.0,0.0
1614051102.401317,310,1614051102,263362646,odom,0.0,0.0,0.0,1.0,0.0,0.0,0.0,0.0,0.0,0.0,0.0,0.0,0.0,0.0,0.0,0.0,0.0,0.0,0.0,0.0,0.0,0.0,0.0,0.0,0.0,0.024,-0.021,-0.926,0.0,0.0,0.0,0.0,0.0,0.0,0.0,0.0,0.0
1614051102.606263,311,1614051102,429225444,odom,0.0,0.0,0.0,1.0,0.0,0.0,0.0,0.0,0.0,0.0,0.0,0.0,0.0,0.0,0.0,0.0,0.0,0.0,0.0,0.0,0.0,0.0,0.0,0.0,0.0,0.027,-0.02,-0.944,0.0,0.0,0.0,0.0,0.0,0.0,0.0,0.0,0.0
1614051102.8061635,312,1614051102,633391380,odom,0.0,0.0,0.0,1.0,0.0,0.0,0.0,0.0,0.0,0.0,0.0,0.0,0.0,0.0,0.0,0.0,0.0,0.0,0.0,0.0,0.0,0.0,0.0,0.0,0.0,0.03,-0.017,-0.923,0.0,0.0,0.0,0.0,0.0,0.0,0.0,0.0,0.0
1614051103.01075,313,1614051102,839929580,odom,0.0,0.0,0.0,1.0,0.0,0.0,0.0,0.0,0.0,0.0,0.0,0.0,0.0,0.0,0.0,0.0,0.0,0.0,0.0,0.0,0.0,0.0,0.0,0.0,0.0,0.03,-0.017,-0.931,0.0,0.0,0.0,0.0,0.0,0.0,0.0,0.0,0.0
1614051103.2112021,314,1614051103,55092811,odom,0.0,0.0,0.0,1.0,0.0,0.0,0.0,0.0,0.0,0.0,0.0,0.0,0.0,0.0,0.0,0.0,0.0,0.0,0.0,0.0,0.0,0.0,0.0,0.0,0.0,0.024,-0.019,-0.947,0.0,0.0,0.0,0.0,0.0,0.0,0.0,0.0,0.0
1614051103.4168236,315,1614051103,239644765,odom,0.0,0.0,0.0,1.0,0.0,0.0,0.0,0.0,0.0,0.0,0.0,0.0,0.0,0.0,0.0,0.0,0.0,0.0,0.0,0.0,0.0,0.0,0.0,0.0,0.0,0.029,-0.017,-0.94,0.0,0.0,0.0,0.0,0.0,0.0,0.0,0.0,0.0
1614051103.6060803,316,1614051103,435528278,odom,0.0,0.0,0.0,1.0,0.0,0.0,0.0,0.0,0.0,0.0,0.0,0.0,0.0,0.0,0.0,0.0,0.0,0.0,0.0,0.0,0.0,0.0,0.0,0.0,0.0,0.029,-0.017,-0.934,0.0,0.0,0.0,0.0,0.0,0.0,0.0,0.0,0.0
1614051103.80833,317,1614051103,638326644,odom,0.0,0.0,0.0,1.0,0.0,0.0,0.0,0.0,0.0,0.0,0.0,0.0,0.0,0.0,0.0,0.0,0.0,0.0,0.0,0.0,0.0,0.0,0.0,0.0,0.0,0.023,-0.022,-0.929,0.0,0.0,0.0,0.0,0.0,0.0,0.0,0.0,0.0
1614051104.006398,318,1614051103,847091197,odom,0.0,0.0,0.0,1.0,0.0,0.0,0.0,0.0,0.0,0.0,0.0,0.0,0.0,0.0,0.0,0.0,0.0,0.0,0.0,0.0,0.0,0.0,0.0,0.0,0.0,0.025,-0.02,-0.94,0.0,0.0,0.0,0.0,0.0,0.0,0.0,0.0,0.0
1614051104.2100067,319,1614051104,32785177,odom,0.0,0.0,0.0,1.0,0.0,0.0,0.0,0.0,0.0,0.0,0.0,0.0,0.0,0.0,0.0,0.0,0.0,0.0,0.0,0.0,0.0,0.0,0.0,0.0,0.0,0.033,-0.017,-0.927,0.0,0.0,0.0,0.0,0.0,0.0,0.0,0.0,0.0
1614051104.4113486,320,1614051104,276085853,odom,0.0,0.0,0.0,1.0,0.0,0.0,0.0,0.0,0.0,0.0,0.0,0.0,0.0,0.0,0.0,0.0,0.0,0.0,0.0,0.0,0.0,0.0,0.0,0.0,0.0,0.029,-0.016,-0.933,0.0,0.0,0.0,0.0,0.0,0.0,0.0,0.0,0.0
1614051104.607743,321,1614051104,447694301,odom,0.0,0.0,0.0,1.0,0.0,0.0,0.0,0.0,0.0,0.0,0.0,0.0,0.0,0.0,0.0,0.0,0.0,0.0,0.0,0.0,0.0,0.0,0.0,0.0,0.0,0.024,-0.019,-0.945,0.0,0.0,0.0,0.0,0.0,0.0,0.0,0.0,0.0
1614051104.8121638,322,1614051104,633347988,odom,0.0,0.0,0.0,1.0,0.0,0.0,0.0,0.0,0.0,0.0,0.0,0.0,0.0,0.0,0.0,0.0,0.0,0.0,0.0,0.0,0.0,0.0,0.0,0.0,0.0,0.029,-0.018,-0.937,0.0,0.0,0.0,0.0,0.0,0.0,0.0,0.0,0.0
1614051105.0097628,323,1614051104,872283697,odom,0.0,0.0,0.0,1.0,0.0,0.0,0.0,0.0,0.0,0.0,0.0,0.0,0.0,0.0,0.0,0.0,0.0,0.0,0.0,0.0,0.0,0.0,0.0,0.0,0.0,0.029,-0.017,-0.932,0.0,0.0,0.0,0.0,0.0,0.0,0.0,0.0,0.0
1614051105.2157657,324,1614051105,68015813,odom,0.0,0.0,0.0,1.0,0.0,0.0,0.0,0.0,0.0,0.0,0.0,0.0,0.0,0.0,0.0,0.0,0.0,0.0,0.0,0.0,0.0,0.0,0.0,0.0,0.0,0.03,-0.015,-0.926,0.0,0.0,0.0,0.0,0.0,0.0,0.0,0.0,0.0
1614051105.4077163,325,1614051105,257435321,odom,0.0,0.0,0.0,1.0,0.0,0.0,0.0,0.0,0.0,0.0,0.0,0.0,0.0,0.0,0.0,0.0,0.0,0.0,0.0,0.0,0.0,0.0,0.0,0.0,0.0,0.032,-0.017,-0.922,0.0,0.0,0.0,0.0,0.0,0.0,0.0,0.0,0.0
1614051105.6104527,326,1614051105,437564373,odom,0.0,0.0,0.0,1.0,0.0,0.0,0.0,0.0,0.0,0.0,0.0,0.0,0.0,0.0,0.0,0.0,0.0,0.0,0.0,0.0,0.0,0.0,0.0,0.0,0.0,0.03,-0.018,-0.93,0.0,0.0,0.0,0.0,0.0,0.0,0.0,0.0,0.0
1614051105.8076942,327,1614051105,651503086,odom,0.0,0.0,0.0,1.0,0.0,0.0,0.0,0.0,0.0,0.0,0.0,0.0,0.0,0.0,0.0,0.0,0.0,0.0,0.0,0.0,0.0,0.0,0.0,0.0,0.0,0.034,-0.018,-0.929,0.0,0.0,0.0,0.0,0.0,0.0,0.0,0.0,0.0
1614051106.00971,328,1614051105,852779626,odom,0.0,0.0,0.0,1.0,0.0,0.0,0.0,0.0,0.0,0.0,0.0,0.0,0.0,0.0,0.0,0.0,0.0,0.0,0.0,0.0,0.0,0.0,0.0,0.0,0.0,0.03,-0.016,-0.926,0.0,0.0,0.0,0.0,0.0,0.0,0.0,0.0,0.0
1614051106.2189074,329,1614051106,34844398,odom,0.0,0.0,0.0,1.0,0.0,0.0,0.0,0.0,0.0,0.0,0.0,0.0,0.0,0.0,0.0,0.0,0.0,0.0,0.0,0.0,0.0,0.0,0.0,0.0,0.0,0.03,-0.017,-0.933,0.0,0.0,0.0,0.0,0.0,0.0,0.0,0.0,0.0
1614051106.4077113,330,1614051106,248913526,odom,0.0,0.0,0.0,1.0,0.0,0.0,0.0,0.0,0.0,0.0,0.0,0.0,0.0,0.0,0.0,0.0,0.0,0.0,0.0,0.0,0.0,0.0,0.0,0.0,0.0,0.03,-0.02,-0.927,0.0,0.0,0.0,0.0,0.0,0.0,0.0,0.0,0.0
1614051106.6185799,331,1614051106,440153121,odom,0.0,0.0,0.0,1.0,0.0,0.0,0.0,0.0,0.0,0.0,0.0,0.0,0.0,0.0,0.0,0.0,0.0,0.0,0.0,0.0,0.0,0.0,0.0,0.0,0.0,0.033,-0.017,-0.925,0.0,0.0,0.0,0.0,0.0,0.0,0.0,0.0,0.0
1614051106.8218715,332,1614051106,664400339,odom,0.0,0.0,0.0,1.0,0.0,0.0,0.0,0.0,0.0,0.0,0.0,0.0,0.0,0.0,0.0,0.0,0.0,0.0,0.0,0.0,0.0,0.0,0.0,0.0,0.0,0.024,-0.024,-0.944,0.0,0.0,0.0,0.0,0.0,0.0,0.0,0.0,0.0
1614051107.0134437,333,1614051106,844240903,odom,0.0,0.0,0.0,1.0,0.0,0.0,0.0,0.0,0.0,0.0,0.0,0.0,0.0,0.0,0.0,0.0,0.0,0.0,0.0,0.0,0.0,0.0,0.0,0.0,0.0,0.032,-0.018,-0.93,0.0,0.0,0.0,0.0,0.0,0.0,0.0,0.0,0.0
1614051107.218825,334,1614051107,55026292,odom,0.0,0.0,0.0,1.0,0.0,0.0,0.0,0.0,0.0,0.0,0.0,0.0,0.0,0.0,0.0,0.0,0.0,0.0,0.0,0.0,0.0,0.0,0.0,0.0,0.0,0.032,-0.015,-0.931,0.0,0.0,0.0,0.0,0.0,0.0,0.0,0.0,0.0
1614051107.413391,335,1614051107,243386507,odom,0.0,0.0,0.0,1.0,0.0,0.0,0.0,0.0,0.0,0.0,0.0,0.0,0.0,0.0,0.0,0.0,0.0,0.0,0.0,0.0,0.0,0.0,0.0,0.0,0.0,0.03,-0.016,-0.932,0.0,0.0,0.0,0.0,0.0,0.0,0.0,0.0,0.0
1614051107.6272612,336,1614051107,440788745,odom,0.0,0.0,0.0,1.0,0.0,0.0,0.0,0.0,0.0,0.0,0.0,0.0,0.0,0.0,0.0,0.0,0.0,0.0,0.0,0.0,0.0,0.0,0.0,0.0,0.0,0.026,-0.015,-0.935,0.0,0.0,0.0,0.0,0.0,0.0,0.0,0.0,0.0
1614051107.8162928,337,1614051107,646224975,odom,0.0,0.0,0.0,1.0,0.0,0.0,0.0,0.0,0.0,0.0,0.0,0.0,0.0,0.0,0.0,0.0,0.0,0.0,0.0,0.0,0.0,0.0,0.0,0.0,0.0,0.02,-0.022,-0.943,0.0,0.0,0.0,0.0,0.0,0.0,0.0,0.0,0.0
1614051108.0270157,338,1614051107,846959590,odom,0.0,0.0,0.0,1.0,0.0,0.0,0.0,0.0,0.0,0.0,0.0,0.0,0.0,0.0,0.0,0.0,0.0,0.0,0.0,0.0,0.0,0.0,0.0,0.0,0.0,0.037,-0.017,-0.925,0.0,0.0,0.0,0.0,0.0,0.0,0.0,0.0,0.0
1614051108.2268994,339,1614051108,47855377,odom,0.0,0.0,0.0,1.0,0.0,0.0,0.0,0.0,0.0,0.0,0.0,0.0,0.0,0.0,0.0,0.0,0.0,0.0,0.0,0.0,0.0,0.0,0.0,0.0,0.0,0.024,-0.019,-0.937,0.0,0.0,0.0,0.0,0.0,0.0,0.0,0.0,0.0
1614051108.4200592,340,1614051108,275206804,odom,0.0,0.0,0.0,1.0,0.0,0.0,0.0,0.0,0.0,0.0,0.0,0.0,0.0,0.0,0.0,0.0,0.0,0.0,0.0,0.0,0.0,0.0,0.0,0.0,0.0,0.032,-0.018,-0.934,0.0,0.0,0.0,0.0,0.0,0.0,0.0,0.0,0.0
1614051108.620038,341,1614051108,448394060,odom,0.0,0.0,0.0,1.0,0.0,0.0,0.0,0.0,0.0,0.0,0.0,0.0,0.0,0.0,0.0,0.0,0.0,0.0,0.0,0.0,0.0,0.0,0.0,0.0,0.0,0.031,-0.026,-0.931,0.0,0.0,0.0,0.0,0.0,0.0,0.0,0.0,0.0
1614051108.8261602,342,1614051108,656721591,odom,0.0,0.0,0.0,1.0,0.0,0.0,0.0,0.0,0.0,0.0,0.0,0.0,0.0,0.0,0.0,0.0,0.0,0.0,0.0,0.0,0.0,0.0,0.0,0.0,0.0,0.025,-0.018,-0.939,0.0,0.0,0.0,0.0,0.0,0.0,0.0,0.0,0.0
1614051109.027213,343,1614051108,859909772,odom,0.0,0.0,0.0,1.0,0.0,0.0,0.0,0.0,0.0,0.0,0.0,0.0,0.0,0.0,0.0,0.0,0.0,0.0,0.0,0.0,0.0,0.0,0.0,0.0,0.0,0.019,-0.023,-0.945,0.0,0.0,0.0,0.0,0.0,0.0,0.0,0.0,0.0
1614051109.2428374,344,1614051109,44838666,odom,0.0,0.0,0.0,1.0,0.0,0.0,0.0,0.0,0.0,0.0,0.0,0.0,0.0,0.0,0.0,0.0,0.0,0.0,0.0,0.0,0.0,0.0,0.0,0.0,0.0,0.035,-0.017,-0.924,0.0,0.0,0.0,0.0,0.0,0.0,0.0,0.0,0.0
1614051109.4213061,345,1614051109,253748178,odom,0.0,0.0,0.0,1.0,0.0,0.0,0.0,0.0,0.0,0.0,0.0,0.0,0.0,0.0,0.0,0.0,0.0,0.0,0.0,0.0,0.0,0.0,0.0,0.0,0.0,0.024,-0.02,-0.945,0.0,0.0,0.0,0.0,0.0,0.0,0.0,0.0,0.0
1614051109.628008,346,1614051109,476700067,odom,0.0,0.0,0.0,1.0,0.0,0.0,0.0,0.0,0.0,0.0,0.0,0.0,0.0,0.0,0.0,0.0,0.0,0.0,0.0,0.0,0.0,0.0,0.0,0.0,0.0,0.034,-0.018,-0.924,0.0,0.0,0.0,0.0,0.0,0.0,0.0,0.0,0.0
1614051109.8291426,347,1614051109,681823015,odom,0.0,0.0,0.0,1.0,0.0,0.0,0.0,0.0,0.0,0.0,0.0,0.0,0.0,0.0,0.0,0.0,0.0,0.0,0.0,0.0,0.0,0.0,0.0,0.0,0.0,0.034,-0.017,-0.923,0.0,0.0,0.0,0.0,0.0,0.0,0.0,0.0,0.0
1614051110.0281005,348,1614051109,854749441,odom,0.0,0.0,0.0,1.0,0.0,0.0,0.0,0.0,0.0,0.0,0.0,0.0,0.0,0.0,0.0,0.0,0.0,0.0,0.0,0.0,0.0,0.0,0.0,0.0,0.0,0.031,-0.019,-0.931,0.0,0.0,0.0,0.0,0.0,0.0,0.0,0.0,0.0
1614051110.228192,349,1614051110,82059144,odom,0.0,0.0,0.0,1.0,0.0,0.0,0.0,0.0,0.0,0.0,0.0,0.0,0.0,0.0,0.0,0.0,0.0,0.0,0.0,0.0,0.0,0.0,0.0,0.0,0.0,0.022,-0.027,-0.946,0.0,0.0,0.0,0.0,0.0,0.0,0.0,0.0,0.0
1614051110.4454195,350,1614051110,257437705,odom,0.0,0.0,0.0,1.0,0.0,0.0,0.0,0.0,0.0,0.0,0.0,0.0,0.0,0.0,0.0,0.0,0.0,0.0,0.0,0.0,0.0,0.0,0.0,0.0,0.0,0.026,-0.019,-0.942,0.0,0.0,0.0,0.0,0.0,0.0,0.0,0.0,0.0
1614051110.6508703,351,1614051110,455427169,odom,0.0,0.0,0.0,1.0,0.0,0.0,0.0,0.0,0.0,0.0,0.0,0.0,0.0,0.0,0.0,0.0,0.0,0.0,0.0,0.0,0.0,0.0,0.0,0.0,0.0,0.021,-0.025,-0.95,0.0,0.0,0.0,0.0,0.0,0.0,0.0,0.0,0.0
1614051110.840354,352,1614051110,695239305,odom,0.0,0.0,0.0,1.0,0.0,0.0,0.0,0.0,0.0,0.0,0.0,0.0,0.0,0.0,0.0,0.0,0.0,0.0,0.0,0.0,0.0,0.0,0.0,0.0,0.0,0.024,-0.026,-0.946,0.0,0.0,0.0,0.0,0.0,0.0,0.0,0.0,0.0
1614051111.0442069,353,1614051110,855948209,odom,0.0,0.0,0.0,1.0,0.0,0.0,0.0,0.0,0.0,0.0,0.0,0.0,0.0,0.0,0.0,0.0,0.0,0.0,0.0,0.0,0.0,0.0,0.0,0.0,0.0,0.023,-0.027,-0.949,0.0,0.0,0.0,0.0,0.0,0.0,0.0,0.0,0.0
1614051111.239016,354,1614051111,67220926,odom,0.0,0.0,0.0,1.0,0.0,0.0,0.0,0.0,0.0,0.0,0.0,0.0,0.0,0.0,0.0,0.0,0.0,0.0,0.0,0.0,0.0,0.0,0.0,0.0,0.0,0.02,-0.017,-0.945,0.0,0.0,0.0,0.0,0.0,0.0,0.0,0.0,0.0
1614051111.4483933,355,1614051111,266611099,odom,0.0,0.0,0.0,1.0,0.0,0.0,0.0,0.0,0.0,0.0,0.0,0.0,0.0,0.0,0.0,0.0,0.0,0.0,0.0,0.0,0.0,0.0,0.0,0.0,0.0,0.032,-0.017,-0.932,0.0,0.0,0.0,0.0,0.0,0.0,0.0,0.0,0.0
1614051111.6422315,356,1614051111,475773334,odom,0.0,0.0,0.0,1.0,0.0,0.0,0.0,0.0,0.0,0.0,0.0,0.0,0.0,0.0,0.0,0.0,0.0,0.0,0.0,0.0,0.0,0.0,0.0,0.0,0.0,0.023,-0.018,-0.939,0.0,0.0,0.0,0.0,0.0,0.0,0.0,0.0,0.0
1614051111.845367,357,1614051111,689131975,odom,0.0,0.0,0.0,1.0,0.0,0.0,0.0,0.0,0.0,0.0,0.0,0.0,0.0,0.0,0.0,0.0,0.0,0.0,0.0,0.0,0.0,0.0,0.0,0.0,0.0,0.027,-0.024,-0.938,0.0,0.0,0.0,0.0,0.0,0.0,0.0,0.0,0.0
1614051112.0493805,358,1614051111,873141765,odom,0.0,0.0,0.0,1.0,0.0,0.0,0.0,0.0,0.0,0.0,0.0,0.0,0.0,0.0,0.0,0.0,0.0,0.0,0.0,0.0,0.0,0.0,0.0,0.0,0.0,0.035,-0.019,-0.923,0.0,0.0,0.0,0.0,0.0,0.0,0.0,0.0,0.0
1614051113.0776188,359,1614051112,891678810,odom,0.0,0.0,0.0,1.0,0.0,0.0,0.0,0.0,0.0,0.0,0.0,0.0,0.0,0.0,0.0,0.0,0.0,0.0,0.0,0.0,0.0,0.0,0.0,0.0,0.0,0.034,-0.016,-0.935,0.0,0.0,0.0,0.0,0.0,0.0,0.0,0.0,0.0
1614051113.286381,360,1614051113,110736131,odom,0.0,0.0,0.0,1.0,0.0,0.0,0.0,0.0,0.0,0.0,0.0,0.0,0.0,0.0,0.0,0.0,0.0,0.0,0.0,0.0,0.0,0.0,0.0,0.0,0.0,0.023,-0.023,-0.941,0.0,0.0,0.0,0.0,0.0,0.0,0.0,0.0,0.0
1614051113.483109,361,1614051113,348769187,odom,0.0,0.0,0.0,1.0,0.0,0.0,0.0,0.0,0.0,0.0,0.0,0.0,0.0,0.0,0.0,0.0,0.0,0.0,0.0,0.0,0.0,0.0,0.0,0.0,0.0,0.027,-0.013,-0.935,0.0,0.0,0.0,0.0,0.0,0.0,0.0,0.0,0.0
1614051113.6898863,362,1614051113,532039880,odom,0.0,0.0,0.0,1.0,0.0,0.0,0.0,0.0,0.0,0.0,0.0,0.0,0.0,0.0,0.0,0.0,0.0,0.0,0.0,0.0,0.0,0.0,0.0,0.0,0.0,0.025,-0.016,-0.941,0.0,0.0,0.0,0.0,0.0,0.0,0.0,0.0,0.0
1614051113.8935165,363,1614051113,713553667,odom,0.0,0.0,0.0,1.0,0.0,0.0,0.0,0.0,0.0,0.0,0.0,0.0,0.0,0.0,0.0,0.0,0.0,0.0,0.0,0.0,0.0,0.0,0.0,0.0,0.0,0.022,-0.026,-0.943,0.0,0.0,0.0,0.0,0.0,0.0,0.0,0.0,0.0
1614051114.0870776,364,1614051113,921965599,odom,0.0,0.0,0.0,1.0,0.0,0.0,0.0,0.0,0.0,0.0,0.0,0.0,0.0,0.0,0.0,0.0,0.0,0.0,0.0,0.0,0.0,0.0,0.0,0.0,0.0,0.035,-0.02,-0.929,0.0,0.0,0.0,0.0,0.0,0.0,0.0,0.0,0.0
1614051114.2842908,365,1614051114,133518218,odom,0.0,0.0,0.0,1.0,0.0,0.0,0.0,0.0,0.0,0.0,0.0,0.0,0.0,0.0,0.0,0.0,0.0,0.0,0.0,0.0,0.0,0.0,0.0,0.0,0.0,0.021,-0.022,-0.94,0.0,0.0,0.0,0.0,0.0,0.0,0.0,0.0,0.0
1614051114.489925,366,1614051114,334380865,odom,0.0,0.0,0.0,1.0,0.0,0.0,0.0,0.0,0.0,0.0,0.0,0.0,0.0,0.0,0.0,0.0,0.0,0.0,0.0,0.0,0.0,0.0,0.0,0.0,0.0,0.035,-0.018,-0.933,0.0,0.0,0.0,0.0,0.0,0.0,0.0,0.0,0.0
1614051114.6871152,367,1614051114,536676406,odom,0.0,0.0,0.0,1.0,0.0,0.0,0.0,0.0,0.0,0.0,0.0,0.0,0.0,0.0,0.0,0.0,0.0,0.0,0.0,0.0,0.0,0.0,0.0,0.0,0.0,0.031,-0.026,-0.935,0.0,0.0,0.0,0.0,0.0,0.0,0.0,0.0,0.0
1614051114.8970485,368,1614051114,724184513,odom,0.0,0.0,0.0,1.0,0.0,0.0,0.0,0.0,0.0,0.0,0.0,0.0,0.0,0.0,0.0,0.0,0.0,0.0,0.0,0.0,0.0,0.0,0.0,0.0,0.0,0.031,-0.024,-0.931,0.0,0.0,0.0,0.0,0.0,0.0,0.0,0.0,0.0
1614051115.0886207,369,1614051114,938748836,odom,0.0,0.0,0.0,1.0,0.0,0.0,0.0,0.0,0.0,0.0,0.0,0.0,0.0,0.0,0.0,0.0,0.0,0.0,0.0,0.0,0.0,0.0,0.0,0.0,0.0,0.024,-0.015,-0.937,0.0,0.0,0.0,0.0,0.0,0.0,0.0,0.0,0.0
1614051115.4973836,370,1614051115,322336912,odom,0.0,0.0,0.0,1.0,0.0,0.0,0.0,0.0,0.0,0.0,0.0,0.0,0.0,0.0,0.0,0.0,0.0,0.0,0.0,0.0,0.0,0.0,0.0,0.0,0.0,0.019,-0.025,-0.947,0.0,0.0,0.0,0.0,0.0,0.0,0.0,0.0,0.0
1614051115.7071579,371,1614051115,526878118,odom,0.0,0.0,0.0,1.0,0.0,0.0,0.0,0.0,0.0,0.0,0.0,0.0,0.0,0.0,0.0,0.0,0.0,0.0,0.0,0.0,0.0,0.0,0.0,0.0,0.0,0.029,-0.012,-0.933,0.0,0.0,0.0,0.0,0.0,0.0,0.0,0.0,0.0
1614051115.910035,372,1614051115,750408887,odom,0.0,0.0,0.0,1.0,0.0,0.0,0.0,0.0,0.0,0.0,0.0,0.0,0.0,0.0,0.0,0.0,0.0,0.0,0.0,0.0,0.0,0.0,0.0,0.0,0.0,0.028,-0.021,-0.936,0.0,0.0,0.0,0.0,0.0,0.0,0.0,0.0,0.0
1614051116.1001337,373,1614051115,931627511,odom,0.0,0.0,0.0,1.0,0.0,0.0,0.0,0.0,0.0,0.0,0.0,0.0,0.0,0.0,0.0,0.0,0.0,0.0,0.0,0.0,0.0,0.0,0.0,0.0,0.0,0.018,-0.024,-0.946,0.0,0.0,0.0,0.0,0.0,0.0,0.0,0.0,0.0
1614051116.2997062,374,1614051116,137086391,odom,0.0,0.0,0.0,1.0,0.0,0.0,0.0,0.0,0.0,0.0,0.0,0.0,0.0,0.0,0.0,0.0,0.0,0.0,0.0,0.0,0.0,0.0,0.0,0.0,0.0,0.027,-0.013,-0.934,0.0,0.0,0.0,0.0,0.0,0.0,0.0,0.0,0.0
1614051116.5013018,375,1614051116,336755514,odom,0.0,0.0,0.0,1.0,0.0,0.0,0.0,0.0,0.0,0.0,0.0,0.0,0.0,0.0,0.0,0.0,0.0,0.0,0.0,0.0,0.0,0.0,0.0,0.0,0.0,0.016,-0.022,-0.941,0.0,0.0,0.0,0.0,0.0,0.0,0.0,0.0,0.0
1614051116.7036626,376,1614051116,545361518,odom,0.0,0.0,0.0,1.0,0.0,0.0,0.0,0.0,0.0,0.0,0.0,0.0,0.0,0.0,0.0,0.0,0.0,0.0,0.0,0.0,0.0,0.0,0.0,0.0,0.0,0.019,-0.021,-0.943,0.0,0.0,0.0,0.0,0.0,0.0,0.0,0.0,0.0
1614051116.905123,377,1614051116,745883226,odom,0.0,0.0,0.0,1.0,0.0,0.0,0.0,0.0,0.0,0.0,0.0,0.0,0.0,0.0,0.0,0.0,0.0,0.0,0.0,0.0,0.0,0.0,0.0,0.0,0.0,0.034,-0.022,-0.93,0.0,0.0,0.0,0.0,0.0,0.0,0.0,0.0,0.0
1614051117.1030333,378,1614051116,936854124,odom,0.0,0.0,0.0,1.0,0.0,0.0,0.0,0.0,0.0,0.0,0.0,0.0,0.0,0.0,0.0,0.0,0.0,0.0,0.0,0.0,0.0,0.0,0.0,0.0,0.0,0.02,-0.019,-0.943,0.0,0.0,0.0,0.0,0.0,0.0,0.0,0.0,0.0
1614051117.300456,379,1614051117,129193067,odom,0.0,0.0,0.0,1.0,0.0,0.0,0.0,0.0,0.0,0.0,0.0,0.0,0.0,0.0,0.0,0.0,0.0,0.0,0.0,0.0,0.0,0.0,0.0,0.0,0.0,0.026,-0.022,-0.938,0.0,0.0,0.0,0.0,0.0,0.0,0.0,0.0,0.0
1614051117.506846,380,1614051117,342840671,odom,0.0,0.0,0.0,1.0,0.0,0.0,0.0,0.0,0.0,0.0,0.0,0.0,0.0,0.0,0.0,0.0,0.0,0.0,0.0,0.0,0.0,0.0,0.0,0.0,0.0,0.02,-0.024,-0.945,0.0,0.0,0.0,0.0,0.0,0.0,0.0,0.0,0.0
1614051117.7084963,381,1614051117,540930271,odom,0.0,0.0,0.0,1.0,0.0,0.0,0.0,0.0,0.0,0.0,0.0,0.0,0.0,0.0,0.0,0.0,0.0,0.0,0.0,0.0,0.0,0.0,0.0,0.0,0.0,0.026,-0.02,-0.938,0.0,0.0,0.0,0.0,0.0,0.0,0.0,0.0,0.0
1614051117.9030497,382,1614051117,753340482,odom,0.0,0.0,0.0,1.0,0.0,0.0,0.0,0.0,0.0,0.0,0.0,0.0,0.0,0.0,0.0,0.0,0.0,0.0,0.0,0.0,0.0,0.0,0.0,0.0,0.0,0.033,-0.017,-0.924,0.0,0.0,0.0,0.0,0.0,0.0,0.0,0.0,0.0
1614051118.1125474,383,1614051117,946148633,odom,0.0,0.0,0.0,1.0,0.0,0.0,0.0,0.0,0.0,0.0,0.0,0.0,0.0,0.0,0.0,0.0,0.0,0.0,0.0,0.0,0.0,0.0,0.0,0.0,0.0,0.033,-0.014,-0.924,0.0,0.0,0.0,0.0,0.0,0.0,0.0,0.0,0.0
1614051118.310822,384,1614051118,149807453,odom,0.0,0.0,0.0,1.0,0.0,0.0,0.0,0.0,0.0,0.0,0.0,0.0,0.0,0.0,0.0,0.0,0.0,0.0,0.0,0.0,0.0,0.0,0.0,0.0,0.0,0.029,-0.019,-0.935,0.0,0.0,0.0,0.0,0.0,0.0,0.0,0.0,0.0
1614051118.510957,385,1614051118,332264900,odom,0.0,0.0,0.0,1.0,0.0,0.0,0.0,0.0,0.0,0.0,0.0,0.0,0.0,0.0,0.0,0.0,0.0,0.0,0.0,0.0,0.0,0.0,0.0,0.0,0.0,0.027,-0.019,-0.933,0.0,0.0,0.0,0.0,0.0,0.0,0.0,0.0,0.0
1614051118.711868,386,1614051118,543015480,odom,0.0,0.0,0.0,1.0,0.0,0.0,0.0,0.0,0.0,0.0,0.0,0.0,0.0,0.0,0.0,0.0,0.0,0.0,0.0,0.0,0.0,0.0,0.0,0.0,0.0,0.021,-0.027,-0.95,0.0,0.0,0.0,0.0,0.0,0.0,0.0,0.0,0.0
1614051118.9061341,387,1614051118,736591339,odom,0.0,0.0,0.0,1.0,0.0,0.0,0.0,0.0,0.0,0.0,0.0,0.0,0.0,0.0,0.0,0.0,0.0,0.0,0.0,0.0,0.0,0.0,0.0,0.0,0.0,0.022,-0.028,-0.948,0.0,0.0,0.0,0.0,0.0,0.0,0.0,0.0,0.0
1614051119.111061,388,1614051118,946159601,odom,0.0,0.0,0.0,1.0,0.0,0.0,0.0,0.0,0.0,0.0,0.0,0.0,0.0,0.0,0.0,0.0,0.0,0.0,0.0,0.0,0.0,0.0,0.0,0.0,0.0,0.032,-0.019,-0.93,0.0,0.0,0.0,0.0,0.0,0.0,0.0,0.0,0.0
1614051119.31112,389,1614051119,140695810,odom,0.0,0.0,0.0,1.0,0.0,0.0,0.0,0.0,0.0,0.0,0.0,0.0,0.0,0.0,0.0,0.0,0.0,0.0,0.0,0.0,0.0,0.0,0.0,0.0,0.0,0.03,-0.024,-0.938,0.0,0.0,0.0,0.0,0.0,0.0,0.0,0.0,0.0
1614051119.5111492,390,1614051119,348607301,odom,0.0,0.0,0.0,1.0,0.0,0.0,0.0,0.0,0.0,0.0,0.0,0.0,0.0,0.0,0.0,0.0,0.0,0.0,0.0,0.0,0.0,0.0,0.0,0.0,0.0,0.022,-0.028,-0.941,0.0,0.0,0.0,0.0,0.0,0.0,0.0,0.0,0.0
1614051119.719152,391,1614051119,544571161,odom,0.0,0.0,0.0,1.0,0.0,0.0,0.0,0.0,0.0,0.0,0.0,0.0,0.0,0.0,0.0,0.0,0.0,0.0,0.0,0.0,0.0,0.0,0.0,0.0,0.0,0.035,-0.023,-0.929,0.0,0.0,0.0,0.0,0.0,0.0,0.0,0.0,0.0
1614051119.914921,392,1614051119,766494035,odom,0.0,0.0,0.0,1.0,0.0,0.0,0.0,0.0,0.0,0.0,0.0,0.0,0.0,0.0,0.0,0.0,0.0,0.0,0.0,0.0,0.0,0.0,0.0,0.0,0.0,0.023,-0.026,-0.944,0.0,0.0,0.0,0.0,0.0,0.0,0.0,0.0,0.0
1614051120.1115317,393,1614051119,939280748,odom,0.0,0.0,0.0,1.0,0.0,0.0,0.0,0.0,0.0,0.0,0.0,0.0,0.0,0.0,0.0,0.0,0.0,0.0,0.0,0.0,0.0,0.0,0.0,0.0,0.0,0.034,-0.023,-0.934,0.0,0.0,0.0,0.0,0.0,0.0,0.0,0.0,0.0
1614051120.33527,394,1614051120,139618396,odom,0.0,0.0,0.0,1.0,0.0,0.0,0.0,0.0,0.0,0.0,0.0,0.0,0.0,0.0,0.0,0.0,0.0,0.0,0.0,0.0,0.0,0.0,0.0,0.0,0.0,0.021,-0.02,-0.936,0.0,0.0,0.0,0.0,0.0,0.0,0.0,0.0,0.0
1614051120.5138898,395,1614051120,367839574,odom,0.0,0.0,0.0,1.0,0.0,0.0,0.0,0.0,0.0,0.0,0.0,0.0,0.0,0.0,0.0,0.0,0.0,0.0,0.0,0.0,0.0,0.0,0.0,0.0,0.0,0.032,-0.013,-0.935,0.0,0.0,0.0,0.0,0.0,0.0,0.0,0.0,0.0
1614051120.7145138,396,1614051120,534444093,odom,0.0,0.0,0.0,1.0,0.0,0.0,0.0,0.0,0.0,0.0,0.0,0.0,0.0,0.0,0.0,0.0,0.0,0.0,0.0,0.0,0.0,0.0,0.0,0.0,0.0,0.028,-0.012,-0.936,0.0,0.0,0.0,0.0,0.0,0.0,0.0,0.0,0.0
1614051120.9294705,397,1614051120,747351408,odom,0.0,0.0,0.0,1.0,0.0,0.0,0.0,0.0,0.0,0.0,0.0,0.0,0.0,0.0,0.0,0.0,0.0,0.0,0.0,0.0,0.0,0.0,0.0,0.0,0.0,0.02,-0.026,-0.944,0.0,0.0,0.0,0.0,0.0,0.0,0.0,0.0,0.0
1614051121.1292334,398,1614051120,985468864,odom,0.0,0.0,0.0,1.0,0.0,0.0,0.0,0.0,0.0,0.0,0.0,0.0,0.0,0.0,0.0,0.0,0.0,0.0,0.0,0.0,0.0,0.0,0.0,0.0,0.0,0.027,-0.023,-0.939,0.0,0.0,0.0,0.0,0.0,0.0,0.0,0.0,0.0
1614051121.3167367,399,1614051121,143142461,odom,0.0,0.0,0.0,1.0,0.0,0.0,0.0,0.0,0.0,0.0,0.0,0.0,0.0,0.0,0.0,0.0,0.0,0.0,0.0,0.0,0.0,0.0,0.0,0.0,0.0,0.02,-0.02,-0.932,0.0,0.0,0.0,0.0,0.0,0.0,0.0,0.0,0.0
1614051121.5257936,400,1614051121,357675552,odom,0.0,0.0,0.0,1.0,0.0,0.0,0.0,0.0,0.0,0.0,0.0,0.0,0.0,0.0,0.0,0.0,0.0,0.0,0.0,0.0,0.0,0.0,0.0,0.0,0.0,0.029,-0.012,-0.938,0.0,0.0,0.0,0.0,0.0,0.0,0.0,0.0,0.0
1614051121.7242947,401,1614051121,566502571,odom,0.0,0.0,0.0,1.0,0.0,0.0,0.0,0.0,0.0,0.0,0.0,0.0,0.0,0.0,0.0,0.0,0.0,0.0,0.0,0.0,0.0,0.0,0.0,0.0,0.0,0.036,-0.015,-0.931,0.0,0.0,0.0,0.0,0.0,0.0,0.0,0.0,0.0
1614051121.9280179,402,1614051121,744892835,odom,0.0,0.0,0.0,1.0,0.0,0.0,0.0,0.0,0.0,0.0,0.0,0.0,0.0,0.0,0.0,0.0,0.0,0.0,0.0,0.0,0.0,0.0,0.0,0.0,0.0,0.028,-0.012,-0.933,0.0,0.0,0.0,0.0,0.0,0.0,0.0,0.0,0.0
1614051122.1367848,403,1614051121,955036640,odom,0.0,0.0,0.0,1.0,0.0,0.0,0.0,0.0,0.0,0.0,0.0,0.0,0.0,0.0,0.0,0.0,0.0,0.0,0.0,0.0,0.0,0.0,0.0,0.0,0.0,0.021,-0.027,-0.942,0.0,0.0,0.0,0.0,0.0,0.0,0.0,0.0,0.0
1614051122.3210733,404,1614051122,158021688,odom,0.0,0.0,0.0,1.0,0.0,0.0,0.0,0.0,0.0,0.0,0.0,0.0,0.0,0.0,0.0,0.0,0.0,0.0,0.0,0.0,0.0,0.0,0.0,0.0,0.0,0.028,-0.016,-0.934,0.0,0.0,0.0,0.0,0.0,0.0,0.0,0.0,0.0
1614051122.5205936,405,1614051122,360326051,odom,0.0,0.0,0.0,1.0,0.0,0.0,0.0,0.0,0.0,0.0,0.0,0.0,0.0,0.0,0.0,0.0,0.0,0.0,0.0,0.0,0.0,0.0,0.0,0.0,0.0,0.022,-0.024,-0.938,0.0,0.0,0.0,0.0,0.0,0.0,0.0,0.0,0.0
1614051122.728377,406,1614051122,555273771,odom,0.0,0.0,0.0,1.0,0.0,0.0,0.0,0.0,0.0,0.0,0.0,0.0,0.0,0.0,0.0,0.0,0.0,0.0,0.0,0.0,0.0,0.0,0.0,0.0,0.0,0.034,-0.019,-0.93,0.0,0.0,0.0,0.0,0.0,0.0,0.0,0.0,0.0
1614051122.9276156,407,1614051122,749066829,odom,0.0,0.0,0.0,1.0,0.0,0.0,0.0,0.0,0.0,0.0,0.0,0.0,0.0,0.0,0.0,0.0,0.0,0.0,0.0,0.0,0.0,0.0,0.0,0.0,0.0,0.031,-0.022,-0.932,0.0,0.0,0.0,0.0,0.0,0.0,0.0,0.0,0.0
1614051123.1210675,408,1614051122,967650413,odom,0.0,0.0,0.0,1.0,0.0,0.0,0.0,0.0,0.0,0.0,0.0,0.0,0.0,0.0,0.0,0.0,0.0,0.0,0.0,0.0,0.0,0.0,0.0,0.0,0.0,0.03,-0.013,-0.931,0.0,0.0,0.0,0.0,0.0,0.0,0.0,0.0,0.0
1614051123.3260453,409,1614051123,151123762,odom,0.0,0.0,0.0,1.0,0.0,0.0,0.0,0.0,0.0,0.0,0.0,0.0,0.0,0.0,0.0,0.0,0.0,0.0,0.0,0.0,0.0,0.0,0.0,0.0,0.0,0.025,-0.024,-0.944,0.0,0.0,0.0,0.0,0.0,0.0,0.0,0.0,0.0
1614051123.530503,410,1614051123,363932847,odom,0.0,0.0,0.0,1.0,0.0,0.0,0.0,0.0,0.0,0.0,0.0,0.0,0.0,0.0,0.0,0.0,0.0,0.0,0.0,0.0,0.0,0.0,0.0,0.0,0.0,0.037,-0.014,-0.924,0.0,0.0,0.0,0.0,0.0,0.0,0.0,0.0,0.0
1614051123.7321513,411,1614051123,550612926,odom,0.0,0.0,0.0,1.0,0.0,0.0,0.0,0.0,0.0,0.0,0.0,0.0,0.0,0.0,0.0,0.0,0.0,0.0,0.0,0.0,0.0,0.0,0.0,0.0,0.0,0.026,-0.022,-0.938,0.0,0.0,0.0,0.0,0.0,0.0,0.0,0.0,0.0
1614051123.9345684,412,1614051123,765919208,odom,0.0,0.0,0.0,1.0,0.0,0.0,0.0,0.0,0.0,0.0,0.0,0.0,0.0,0.0,0.0,0.0,0.0,0.0,0.0,0.0,0.0,0.0,0.0,0.0,0.0,0.02,-0.024,-0.947,0.0,0.0,0.0,0.0,0.0,0.0,0.0,0.0,0.0
1614051124.1290913,413,1614051123,970408678,odom,0.0,0.0,0.0,1.0,0.0,0.0,0.0,0.0,0.0,0.0,0.0,0.0,0.0,0.0,0.0,0.0,0.0,0.0,0.0,0.0,0.0,0.0,0.0,0.0,0.0,0.035,-0.015,-0.925,0.0,0.0,0.0,0.0,0.0,0.0,0.0,0.0,0.0
1614051124.3294241,414,1614051124,196879386,odom,0.0,0.0,0.0,1.0,0.0,0.0,0.0,0.0,0.0,0.0,0.0,0.0,0.0,0.0,0.0,0.0,0.0,0.0,0.0,0.0,0.0,0.0,0.0,0.0,0.0,0.034,-0.011,-0.926,0.0,0.0,0.0,0.0,0.0,0.0,0.0,0.0,0.0
1614051124.532372,415,1614051124,361002683,odom,0.0,0.0,0.0,1.0,0.0,0.0,0.0,0.0,0.0,0.0,0.0,0.0,0.0,0.0,0.0,0.0,0.0,0.0,0.0,0.0,0.0,0.0,0.0,0.0,0.0,0.028,-0.02,-0.94,0.0,0.0,0.0,0.0,0.0,0.0,0.0,0.0,0.0
1614051124.7271988,416,1614051124,585264682,odom,0.0,0.0,0.0,1.0,0.0,0.0,0.0,0.0,0.0,0.0,0.0,0.0,0.0,0.0,0.0,0.0,0.0,0.0,0.0,0.0,0.0,0.0,0.0,0.0,0.0,0.023,-0.025,-0.943,0.0,0.0,0.0,0.0,0.0,0.0,0.0,0.0,0.0
1614051124.9549887,417,1614051124,769046783,odom,0.0,0.0,0.0,1.0,0.0,0.0,0.0,0.0,0.0,0.0,0.0,0.0,0.0,0.0,0.0,0.0,0.0,0.0,0.0,0.0,0.0,0.0,0.0,0.0,0.0,0.02,-0.027,-0.948,0.0,0.0,0.0,0.0,0.0,0.0,0.0,0.0,0.0
1614051125.1395357,418,1614051124,963358879,odom,0.0,0.0,0.0,1.0,0.0,0.0,0.0,0.0,0.0,0.0,0.0,0.0,0.0,0.0,0.0,0.0,0.0,0.0,0.0,0.0,0.0,0.0,0.0,0.0,0.0,0.03,-0.015,-0.934,0.0,0.0,0.0,0.0,0.0,0.0,0.0,0.0,0.0
1614051125.3309102,419,1614051125,166873455,odom,0.0,0.0,0.0,1.0,0.0,0.0,0.0,0.0,0.0,0.0,0.0,0.0,0.0,0.0,0.0,0.0,0.0,0.0,0.0,0.0,0.0,0.0,0.0,0.0,0.0,0.03,-0.015,-0.929,0.0,0.0,0.0,0.0,0.0,0.0,0.0,0.0,0.0
1614051125.5388956,420,1614051125,387810707,odom,0.0,0.0,0.0,1.0,0.0,0.0,0.0,0.0,0.0,0.0,0.0,0.0,0.0,0.0,0.0,0.0,0.0,0.0,0.0,0.0,0.0,0.0,0.0,0.0,0.0,0.031,-0.01,-0.929,0.0,0.0,0.0,0.0,0.0,0.0,0.0,0.0,0.0
1614051125.7279923,421,1614051125,556448221,odom,0.0,0.0,0.0,1.0,0.0,0.0,0.0,0.0,0.0,0.0,0.0,0.0,0.0,0.0,0.0,0.0,0.0,0.0,0.0,0.0,0.0,0.0,0.0,0.0,0.0,0.031,-0.02,-0.935,0.0,0.0,0.0,0.0,0.0,0.0,0.0,0.0,0.0
1614051125.9375768,422,1614051125,768869638,odom,0.0,0.0,0.0,1.0,0.0,0.0,0.0,0.0,0.0,0.0,0.0,0.0,0.0,0.0,0.0,0.0,0.0,0.0,0.0,0.0,0.0,0.0,0.0,0.0,0.0,0.027,-0.021,-0.936,0.0,0.0,0.0,0.0,0.0,0.0,0.0,0.0,0.0
1614051126.1311526,423,1614051125,978878021,odom,0.0,0.0,0.0,1.0,0.0,0.0,0.0,0.0,0.0,0.0,0.0,0.0,0.0,0.0,0.0,0.0,0.0,0.0,0.0,0.0,0.0,0.0,0.0,0.0,0.0,0.025,-0.024,-0.943,0.0,0.0,0.0,0.0,0.0,0.0,0.0,0.0,0.0
1614051126.331723,424,1614051126,154892683,odom,0.0,0.0,0.0,1.0,0.0,0.0,0.0,0.0,0.0,0.0,0.0,0.0,0.0,0.0,0.0,0.0,0.0,0.0,0.0,0.0,0.0,0.0,0.0,0.0,0.0,0.034,-0.018,-0.932,0.0,0.0,0.0,0.0,0.0,0.0,0.0,0.0,0.0
1614051126.5290923,425,1614051126,347112417,odom,0.0,0.0,0.0,1.0,0.0,0.0,0.0,0.0,0.0,0.0,0.0,0.0,0.0,0.0,0.0,0.0,0.0,0.0,0.0,0.0,0.0,0.0,0.0,0.0,0.0,0.023,-0.022,-0.94,0.0,0.0,0.0,0.0,0.0,0.0,0.0,0.0,0.0
1614051126.727023,426,1614051126,569086313,odom,0.0,0.0,0.0,1.0,0.0,0.0,0.0,0.0,0.0,0.0,0.0,0.0,0.0,0.0,0.0,0.0,0.0,0.0,0.0,0.0,0.0,0.0,0.0,0.0,0.0,0.026,-0.022,-0.938,0.0,0.0,0.0,0.0,0.0,0.0,0.0,0.0,0.0
1614051126.9366105,427,1614051126,771476745,odom,0.0,0.0,0.0,1.0,0.0,0.0,0.0,0.0,0.0,0.0,0.0,0.0,0.0,0.0,0.0,0.0,0.0,0.0,0.0,0.0,0.0,0.0,0.0,0.0,0.0,0.026,-0.022,-0.934,0.0,0.0,0.0,0.0,0.0,0.0,0.0,0.0,0.0
1614051127.1348104,428,1614051126,988293170,odom,0.0,0.0,0.0,1.0,0.0,0.0,0.0,0.0,0.0,0.0,0.0,0.0,0.0,0.0,0.0,0.0,0.0,0.0,0.0,0.0,0.0,0.0,0.0,0.0,0.0,0.024,-0.021,-0.937,0.0,0.0,0.0,0.0,0.0,0.0,0.0,0.0,0.0
1614051127.3414834,429,1614051127,194029092,odom,0.0,0.0,0.0,1.0,0.0,0.0,0.0,0.0,0.0,0.0,0.0,0.0,0.0,0.0,0.0,0.0,0.0,0.0,0.0,0.0,0.0,0.0,0.0,0.0,0.0,0.029,-0.018,-0.939,0.0,0.0,0.0,0.0,0.0,0.0,0.0,0.0,0.0
1614051127.5455601,430,1614051127,369132518,odom,0.0,0.0,0.0,1.0,0.0,0.0,0.0,0.0,0.0,0.0,0.0,0.0,0.0,0.0,0.0,0.0,0.0,0.0,0.0,0.0,0.0,0.0,0.0,0.0,0.0,0.03,-0.02,-0.937,0.0,0.0,0.0,0.0,0.0,0.0,0.0,0.0,0.0
1614051127.730648,431,1614051127,565544605,odom,0.0,0.0,0.0,1.0,0.0,0.0,0.0,0.0,0.0,0.0,0.0,0.0,0.0,0.0,0.0,0.0,0.0,0.0,0.0,0.0,0.0,0.0,0.0,0.0,0.0,0.029,-0.018,-0.935,0.0,0.0,0.0,0.0,0.0,0.0,0.0,0.0,0.0
1614051127.9485822,432,1614051127,771902561,odom,0.0,0.0,0.0,1.0,0.0,0.0,0.0,0.0,0.0,0.0,0.0,0.0,0.0,0.0,0.0,0.0,0.0,0.0,0.0,0.0,0.0,0.0,0.0,0.0,0.0,0.027,-0.02,-0.937,0.0,0.0,0.0,0.0,0.0,0.0,0.0,0.0,0.0
1614051128.141967,433,1614051127,971747398,odom,0.0,0.0,0.0,1.0,0.0,0.0,0.0,0.0,0.0,0.0,0.0,0.0,0.0,0.0,0.0,0.0,0.0,0.0,0.0,0.0,0.0,0.0,0.0,0.0,0.0,0.03,-0.018,-0.937,0.0,0.0,0.0,0.0,0.0,0.0,0.0,0.0,0.0
1614051128.330553,434,1614051128,168405771,odom,0.0,0.0,0.0,1.0,0.0,0.0,0.0,0.0,0.0,0.0,0.0,0.0,0.0,0.0,0.0,0.0,0.0,0.0,0.0,0.0,0.0,0.0,0.0,0.0,0.0,0.027,-0.021,-0.935,0.0,0.0,0.0,0.0,0.0,0.0,0.0,0.0,0.0
1614051128.5426342,435,1614051128,365883350,odom,0.0,0.0,0.0,1.0,0.0,0.0,0.0,0.0,0.0,0.0,0.0,0.0,0.0,0.0,0.0,0.0,0.0,0.0,0.0,0.0,0.0,0.0,0.0,0.0,0.0,0.026,-0.021,-0.938,0.0,0.0,0.0,0.0,0.0,0.0,0.0,0.0,0.0
1614051128.7329028,436,1614051128,592380523,odom,0.0,0.0,0.0,1.0,0.0,0.0,0.0,0.0,0.0,0.0,0.0,0.0,0.0,0.0,0.0,0.0,0.0,0.0,0.0,0.0,0.0,0.0,0.0,0.0,0.0,0.03,-0.021,-0.939,0.0,0.0,0.0,0.0,0.0,0.0,0.0,0.0,0.0
1614051128.9368966,437,1614051128,766747474,odom,0.0,0.0,0.0,1.0,0.0,0.0,0.0,0.0,0.0,0.0,0.0,0.0,0.0,0.0,0.0,0.0,0.0,0.0,0.0,0.0,0.0,0.0,0.0,0.0,0.0,0.029,-0.021,-0.938,0.0,0.0,0.0,0.0,0.0,0.0,0.0,0.0,0.0
1614051129.1343482,438,1614051128,966536998,odom,0.0,0.0,0.0,1.0,0.0,0.0,0.0,0.0,0.0,0.0,0.0,0.0,0.0,0.0,0.0,0.0,0.0,0.0,0.0,0.0,0.0,0.0,0.0,0.0,0.0,0.027,-0.018,-0.938,0.0,0.0,0.0,0.0,0.0,0.0,0.0,0.0,0.0
1614051129.3351564,439,1614051129,187455654,odom,0.0,0.0,0.0,1.0,0.0,0.0,0.0,0.0,0.0,0.0,0.0,0.0,0.0,0.0,0.0,0.0,0.0,0.0,0.0,0.0,0.0,0.0,0.0,0.0,0.0,0.029,-0.02,-0.936,0.0,0.0,0.0,0.0,0.0,0.0,0.0,0.0,0.0
1614051129.53405,440,1614051129,361903190,odom,0.0,0.0,0.0,1.0,0.0,0.0,0.0,0.0,0.0,0.0,0.0,0.0,0.0,0.0,0.0,0.0,0.0,0.0,0.0,0.0,0.0,0.0,0.0,0.0,0.0,0.027,-0.019,-0.938,0.0,0.0,0.0,0.0,0.0,0.0,0.0,0.0,0.0
1614051129.7392366,441,1614051129,557114124,odom,0.0,0.0,0.0,1.0,0.0,0.0,0.0,0.0,0.0,0.0,0.0,0.0,0.0,0.0,0.0,0.0,0.0,0.0,0.0,0.0,0.0,0.0,0.0,0.0,0.0,0.029,-0.017,-0.938,0.0,0.0,0.0,0.0,0.0,0.0,0.0,0.0,0.0
1614051129.9701202,442,1614051129,763145685,odom,0.0,0.0,0.0,1.0,0.0,0.0,0.0,0.0,0.0,0.0,0.0,0.0,0.0,0.0,0.0,0.0,0.0,0.0,0.0,0.0,0.0,0.0,0.0,0.0,0.0,0.028,-0.02,-0.934,0.0,0.0,0.0,0.0,0.0,0.0,0.0,0.0,0.0
1614051130.1447957,443,1614051129,987425565,odom,0.0,0.0,0.0,1.0,0.0,0.0,0.0,0.0,0.0,0.0,0.0,0.0,0.0,0.0,0.0,0.0,0.0,0.0,0.0,0.0,0.0,0.0,0.0,0.0,0.0,0.028,-0.025,-0.935,0.0,0.0,0.0,0.0,0.0,0.0,0.0,0.0,0.0
1614051130.334962,444,1614051130,168619871,odom,0.0,0.0,0.0,1.0,0.0,0.0,0.0,0.0,0.0,0.0,0.0,0.0,0.0,0.0,0.0,0.0,0.0,0.0,0.0,0.0,0.0,0.0,0.0,0.0,0.0,0.025,-0.021,-0.938,0.0,0.0,0.0,0.0,0.0,0.0,0.0,0.0,0.0
1614051130.5349956,445,1614051130,368506908,odom,0.0,0.0,0.0,1.0,0.0,0.0,0.0,0.0,0.0,0.0,0.0,0.0,0.0,0.0,0.0,0.0,0.0,0.0,0.0,0.0,0.0,0.0,0.0,0.0,0.0,0.031,-0.018,-0.93,0.0,0.0,0.0,0.0,0.0,0.0,0.0,0.0,0.0
1614051130.734115,446,1614051130,565756082,odom,0.0,0.0,0.0,1.0,0.0,0.0,0.0,0.0,0.0,0.0,0.0,0.0,0.0,0.0,0.0,0.0,0.0,0.0,0.0,0.0,0.0,0.0,0.0,0.0,0.0,0.03,-0.02,-0.935,0.0,0.0,0.0,0.0,0.0,0.0,0.0,0.0,0.0
1614051130.9341764,447,1614051130,758873701,odom,0.0,0.0,0.0,1.0,0.0,0.0,0.0,0.0,0.0,0.0,0.0,0.0,0.0,0.0,0.0,0.0,0.0,0.0,0.0,0.0,0.0,0.0,0.0,0.0,0.0,0.024,-0.02,-0.937,0.0,0.0,0.0,0.0,0.0,0.0,0.0,0.0,0.0
1614051131.136192,448,1614051130,985939979,odom,0.0,0.0,0.0,1.0,0.0,0.0,0.0,0.0,0.0,0.0,0.0,0.0,0.0,0.0,0.0,0.0,0.0,0.0,0.0,0.0,0.0,0.0,0.0,0.0,0.0,0.027,-0.017,-0.932,0.0,0.0,0.0,0.0,0.0,0.0,0.0,0.0,0.0
1614051131.3366053,449,1614051131,170793294,odom,0.0,0.0,0.0,1.0,0.0,0.0,0.0,0.0,0.0,0.0,0.0,0.0,0.0,0.0,0.0,0.0,0.0,0.0,0.0,0.0,0.0,0.0,0.0,0.0,0.0,0.025,-0.016,-0.935,0.0,0.0,0.0,0.0,0.0,0.0,0.0,0.0,0.0
1614051131.5368762,450,1614051131,362539529,odom,0.0,0.0,0.0,1.0,0.0,0.0,0.0,0.0,0.0,0.0,0.0,0.0,0.0,0.0,0.0,0.0,0.0,0.0,0.0,0.0,0.0,0.0,0.0,0.0,0.0,0.031,-0.018,-0.929,0.0,0.0,0.0,0.0,0.0,0.0,0.0,0.0,0.0
1614051131.7338712,451,1614051131,573394060,odom,0.0,0.0,0.0,1.0,0.0,0.0,0.0,0.0,0.0,0.0,0.0,0.0,0.0,0.0,0.0,0.0,0.0,0.0,0.0,0.0,0.0,0.0,0.0,0.0,0.0,0.025,-0.021,-0.937,0.0,0.0,0.0,0.0,0.0,0.0,0.0,0.0,0.0
1614051131.936157,452,1614051131,784157514,odom,0.0,0.0,0.0,1.0,0.0,0.0,0.0,0.0,0.0,0.0,0.0,0.0,0.0,0.0,0.0,0.0,0.0,0.0,0.0,0.0,0.0,0.0,0.0,0.0,0.0,0.03,-0.021,-0.933,0.0,0.0,0.0,0.0,0.0,0.0,0.0,0.0,0.0
1614051132.1336203,453,1614051131,973567962,odom,0.0,0.0,0.0,1.0,0.0,0.0,0.0,0.0,0.0,0.0,0.0,0.0,0.0,0.0,0.0,0.0,0.0,0.0,0.0,0.0,0.0,0.0,0.0,0.0,0.0,0.028,-0.02,-0.937,0.0,0.0,0.0,0.0,0.0,0.0,0.0,0.0,0.0
1614051132.3337297,454,1614051132,161962509,odom,0.0,0.0,0.0,1.0,0.0,0.0,0.0,0.0,0.0,0.0,0.0,0.0,0.0,0.0,0.0,0.0,0.0,0.0,0.0,0.0,0.0,0.0,0.0,0.0,0.0,0.027,-0.021,-0.939,0.0,0.0,0.0,0.0,0.0,0.0,0.0,0.0,0.0
1614051132.5366547,455,1614051132,377887010,odom,0.0,0.0,0.0,1.0,0.0,0.0,0.0,0.0,0.0,0.0,0.0,0.0,0.0,0.0,0.0,0.0,0.0,0.0,0.0,0.0,0.0,0.0,0.0,0.0,0.0,0.027,-0.019,-0.938,0.0,0.0,0.0,0.0,0.0,0.0,0.0,0.0,0.0
1614051132.7368748,456,1614051132,585123777,odom,0.0,0.0,0.0,1.0,0.0,0.0,0.0,0.0,0.0,0.0,0.0,0.0,0.0,0.0,0.0,0.0,0.0,0.0,0.0,0.0,0.0,0.0,0.0,0.0,0.0,0.026,-0.019,-0.936,0.0,0.0,0.0,0.0,0.0,0.0,0.0,0.0,0.0
1614051132.9364924,457,1614051132,770993709,odom,0.0,0.0,0.0,1.0,0.0,0.0,0.0,0.0,0.0,0.0,0.0,0.0,0.0,0.0,0.0,0.0,0.0,0.0,0.0,0.0,0.0,0.0,0.0,0.0,0.0,0.027,-0.019,-0.937,0.0,0.0,0.0,0.0,0.0,0.0,0.0,0.0,0.0
1614051133.138419,458,1614051132,979694843,odom,0.0,0.0,0.0,1.0,0.0,0.0,0.0,0.0,0.0,0.0,0.0,0.0,0.0,0.0,0.0,0.0,0.0,0.0,0.0,0.0,0.0,0.0,0.0,0.0,0.0,0.029,-0.019,-0.936,0.0,0.0,0.0,0.0,0.0,0.0,0.0,0.0,0.0
1614051133.3410313,459,1614051133,162299156,odom,0.0,0.0,0.0,1.0,0.0,0.0,0.0,0.0,0.0,0.0,0.0,0.0,0.0,0.0,0.0,0.0,0.0,0.0,0.0,0.0,0.0,0.0,0.0,0.0,0.0,0.03,-0.02,-0.937,0.0,0.0,0.0,0.0,0.0,0.0,0.0,0.0,0.0
1614051133.5485542,460,1614051133,387397527,odom,0.0,0.0,0.0,1.0,0.0,0.0,0.0,0.0,0.0,0.0,0.0,0.0,0.0,0.0,0.0,0.0,0.0,0.0,0.0,0.0,0.0,0.0,0.0,0.0,0.0,0.027,-0.02,-0.933,0.0,0.0,0.0,0.0,0.0,0.0,0.0,0.0,0.0
1614051133.749763,461,1614051133,569905996,odom,0.0,0.0,0.0,1.0,0.0,0.0,0.0,0.0,0.0,0.0,0.0,0.0,0.0,0.0,0.0,0.0,0.0,0.0,0.0,0.0,0.0,0.0,0.0,0.0,0.0,0.028,-0.022,-0.938,0.0,0.0,0.0,0.0,0.0,0.0,0.0,0.0,0.0
1614051133.9428084,462,1614051133,785995960,odom,0.0,0.0,0.0,1.0,0.0,0.0,0.0,0.0,0.0,0.0,0.0,0.0,0.0,0.0,0.0,0.0,0.0,0.0,0.0,0.0,0.0,0.0,0.0,0.0,0.0,0.028,-0.02,-0.937,0.0,0.0,0.0,0.0,0.0,0.0,0.0,0.0,0.0
1614051134.1479197,463,1614051133,969926357,odom,0.0,0.0,0.0,1.0,0.0,0.0,0.0,0.0,0.0,0.0,0.0,0.0,0.0,0.0,0.0,0.0,0.0,0.0,0.0,0.0,0.0,0.0,0.0,0.0,0.0,0.028,-0.018,-0.939,0.0,0.0,0.0,0.0,0.0,0.0,0.0,0.0,0.0
1614051134.3457391,464,1614051134,181780338,odom,0.0,0.0,0.0,1.0,0.0,0.0,0.0,0.0,0.0,0.0,0.0,0.0,0.0,0.0,0.0,0.0,0.0,0.0,0.0,0.0,0.0,0.0,0.0,0.0,0.0,0.03,-0.021,-0.937,0.0,0.0,0.0,0.0,0.0,0.0,0.0,0.0,0.0
1614051135.1720347,465,1614051134,987524032,odom,0.0,0.0,0.0,1.0,0.0,0.0,0.0,0.0,0.0,0.0,0.0,0.0,0.0,0.0,0.0,0.0,0.0,0.0,0.0,0.0,0.0,0.0,0.0,0.0,0.0,0.034,-0.02,-0.935,0.0,0.0,0.0,0.0,0.0,0.0,0.0,0.0,0.0
1614051135.3758519,466,1614051135,210745811,odom,0.0,0.0,0.0,1.0,0.0,0.0,0.0,0.0,0.0,0.0,0.0,0.0,0.0,0.0,0.0,0.0,0.0,0.0,0.0,0.0,0.0,0.0,0.0,0.0,0.0,0.03,-0.024,-0.936,0.0,0.0,0.0,0.0,0.0,0.0,0.0,0.0,0.0
1614051135.573977,467,1614051135,412651300,odom,0.0,0.0,0.0,1.0,0.0,0.0,0.0,0.0,0.0,0.0,0.0,0.0,0.0,0.0,0.0,0.0,0.0,0.0,0.0,0.0,0.0,0.0,0.0,0.0,0.0,0.034,-0.021,-0.936,0.0,0.0,0.0,0.0,0.0,0.0,0.0,0.0,0.0
1614051135.777115,468,1614051135,610658884,odom,0.0,0.0,0.0,1.0,0.0,0.0,0.0,0.0,0.0,0.0,0.0,0.0,0.0,0.0,0.0,0.0,0.0,0.0,0.0,0.0,0.0,0.0,0.0,0.0,0.0,0.028,-0.013,-0.937,0.0,0.0,0.0,0.0,0.0,0.0,0.0,0.0,0.0
1614051135.9750376,469,1614051135,815572738,odom,0.0,0.0,0.0,1.0,0.0,0.0,0.0,0.0,0.0,0.0,0.0,0.0,0.0,0.0,0.0,0.0,0.0,0.0,0.0,0.0,0.0,0.0,0.0,0.0,0.0,0.032,-0.016,-0.931,0.0,0.0,0.0,0.0,0.0,0.0,0.0,0.0,0.0
1614051136.1770878,470,1614051136,27458667,odom,0.0,0.0,0.0,1.0,0.0,0.0,0.0,0.0,0.0,0.0,0.0,0.0,0.0,0.0,0.0,0.0,0.0,0.0,0.0,0.0,0.0,0.0,0.0,0.0,0.0,0.032,-0.014,-0.931,0.0,0.0,0.0,0.0,0.0,0.0,0.0,0.0,0.0
1614051136.3761559,471,1614051136,196906805,odom,0.0,0.0,0.0,1.0,0.0,0.0,0.0,0.0,0.0,0.0,0.0,0.0,0.0,0.0,0.0,0.0,0.0,0.0,0.0,0.0,0.0,0.0,0.0,0.0,0.0,0.019,-0.022,-0.946,0.0,0.0,0.0,0.0,0.0,0.0,0.0,0.0,0.0
1614051136.583169,472,1614051136,412802934,odom,0.0,0.0,0.0,1.0,0.0,0.0,0.0,0.0,0.0,0.0,0.0,0.0,0.0,0.0,0.0,0.0,0.0,0.0,0.0,0.0,0.0,0.0,0.0,0.0,0.0,0.039,-0.02,-0.927,0.0,0.0,0.0,0.0,0.0,0.0,0.0,0.0,0.0
1614051136.7859018,473,1614051136,595353603,odom,0.0,0.0,0.0,1.0,0.0,0.0,0.0,0.0,0.0,0.0,0.0,0.0,0.0,0.0,0.0,0.0,0.0,0.0,0.0,0.0,0.0,0.0,0.0,0.0,0.0,0.027,-0.011,-0.934,0.0,0.0,0.0,0.0,0.0,0.0,0.0,0.0,0.0
1614051136.980173,474,1614051136,836024284,odom,0.0,0.0,0.0,1.0,0.0,0.0,0.0,0.0,0.0,0.0,0.0,0.0,0.0,0.0,0.0,0.0,0.0,0.0,0.0,0.0,0.0,0.0,0.0,0.0,0.0,0.035,-0.019,-0.928,0.0,0.0,0.0,0.0,0.0,0.0,0.0,0.0,0.0
1614051137.1949441,475,1614051136,998013496,odom,0.0,0.0,0.0,1.0,0.0,0.0,0.0,0.0,0.0,0.0,0.0,0.0,0.0,0.0,0.0,0.0,0.0,0.0,0.0,0.0,0.0,0.0,0.0,0.0,0.0,0.027,-0.026,-0.944,0.0,0.0,0.0,0.0,0.0,0.0,0.0,0.0,0.0
1614051137.4013832,476,1614051137,222253084,odom,0.0,0.0,0.0,1.0,0.0,0.0,0.0,0.0,0.0,0.0,0.0,0.0,0.0,0.0,0.0,0.0,0.0,0.0,0.0,0.0,0.0,0.0,0.0,0.0,0.0,0.019,-0.023,-0.947,0.0,0.0,0.0,0.0,0.0,0.0,0.0,0.0,0.0
1614051137.5921762,477,1614051137,424079418,odom,0.0,0.0,0.0,1.0,0.0,0.0,0.0,0.0,0.0,0.0,0.0,0.0,0.0,0.0,0.0,0.0,0.0,0.0,0.0,0.0,0.0,0.0,0.0,0.0,0.0,0.035,-0.011,-0.925,0.0,0.0,0.0,0.0,0.0,0.0,0.0,0.0,0.0
1614051137.7981634,478,1614051137,624474763,odom,0.0,0.0,0.0,1.0,0.0,0.0,0.0,0.0,0.0,0.0,0.0,0.0,0.0,0.0,0.0,0.0,0.0,0.0,0.0,0.0,0.0,0.0,0.0,0.0,0.0,0.036,-0.016,-0.924,0.0,0.0,0.0,0.0,0.0,0.0,0.0,0.0,0.0
1614051137.9955695,479,1614051137,820468187,odom,0.0,0.0,0.0,1.0,0.0,0.0,0.0,0.0,0.0,0.0,0.0,0.0,0.0,0.0,0.0,0.0,0.0,0.0,0.0,0.0,0.0,0.0,0.0,0.0,0.0,0.033,-0.02,-0.928,0.0,0.0,0.0,0.0,0.0,0.0,0.0,0.0,0.0
1614051138.1894035,480,1614051138,36379814,odom,0.0,0.0,0.0,1.0,0.0,0.0,0.0,0.0,0.0,0.0,0.0,0.0,0.0,0.0,0.0,0.0,0.0,0.0,0.0,0.0,0.0,0.0,0.0,0.0,0.0,0.02,-0.026,-0.948,0.0,0.0,0.0,0.0,0.0,0.0,0.0,0.0,0.0
1614051138.3976965,481,1614051138,216498374,odom,0.0,0.0,0.0,1.0,0.0,0.0,0.0,0.0,0.0,0.0,0.0,0.0,0.0,0.0,0.0,0.0,0.0,0.0,0.0,0.0,0.0,0.0,0.0,0.0,0.0,0.019,-0.028,-0.945,0.0,0.0,0.0,0.0,0.0,0.0,0.0,0.0,0.0
1614051138.5935364,482,1614051138,415328264,odom,0.0,0.0,0.0,1.0,0.0,0.0,0.0,0.0,0.0,0.0,0.0,0.0,0.0,0.0,0.0,0.0,0.0,0.0,0.0,0.0,0.0,0.0,0.0,0.0,0.0,0.02,-0.026,-0.948,0.0,0.0,0.0,0.0,0.0,0.0,0.0,0.0,0.0
1614051138.7935026,483,1614051138,638108253,odom,0.0,0.0,0.0,1.0,0.0,0.0,0.0,0.0,0.0,0.0,0.0,0.0,0.0,0.0,0.0,0.0,0.0,0.0,0.0,0.0,0.0,0.0,0.0,0.0,0.0,0.021,-0.024,-0.946,0.0,0.0,0.0,0.0,0.0,0.0,0.0,0.0,0.0
1614051138.9934773,484,1614051138,829666614,odom,0.0,0.0,0.0,1.0,0.0,0.0,0.0,0.0,0.0,0.0,0.0,0.0,0.0,0.0,0.0,0.0,0.0,0.0,0.0,0.0,0.0,0.0,0.0,0.0,0.0,0.033,-0.013,-0.929,0.0,0.0,0.0,0.0,0.0,0.0,0.0,0.0,0.0
1614051139.1961675,485,1614051139,20882844,odom,0.0,0.0,0.0,1.0,0.0,0.0,0.0,0.0,0.0,0.0,0.0,0.0,0.0,0.0,0.0,0.0,0.0,0.0,0.0,0.0,0.0,0.0,0.0,0.0,0.0,0.031,-0.015,-0.927,0.0,0.0,0.0,0.0,0.0,0.0,0.0,0.0,0.0
1614051139.3991766,486,1614051139,212055444,odom,0.0,0.0,0.0,1.0,0.0,0.0,0.0,0.0,0.0,0.0,0.0,0.0,0.0,0.0,0.0,0.0,0.0,0.0,0.0,0.0,0.0,0.0,0.0,0.0,0.0,0.031,-0.014,-0.927,0.0,0.0,0.0,0.0,0.0,0.0,0.0,0.0,0.0
1614051139.596048,487,1614051139,446109771,odom,0.0,0.0,0.0,1.0,0.0,0.0,0.0,0.0,0.0,0.0,0.0,0.0,0.0,0.0,0.0,0.0,0.0,0.0,0.0,0.0,0.0,0.0,0.0,0.0,0.0,0.034,-0.015,-0.927,0.0,0.0,0.0,0.0,0.0,0.0,0.0,0.0,0.0
1614051139.8014686,488,1614051139,635018587,odom,0.0,0.0,0.0,1.0,0.0,0.0,0.0,0.0,0.0,0.0,0.0,0.0,0.0,0.0,0.0,0.0,0.0,0.0,0.0,0.0,0.0,0.0,0.0,0.0,0.0,0.033,-0.02,-0.928,0.0,0.0,0.0,0.0,0.0,0.0,0.0,0.0,0.0
1614051139.9961438,489,1614051139,829920530,odom,0.0,0.0,0.0,1.0,0.0,0.0,0.0,0.0,0.0,0.0,0.0,0.0,0.0,0.0,0.0,0.0,0.0,0.0,0.0,0.0,0.0,0.0,0.0,0.0,0.0,0.029,-0.019,-0.933,0.0,0.0,0.0,0.0,0.0,0.0,0.0,0.0,0.0
1614051140.223058,490,1614051140,15525579,odom,0.0,0.0,0.0,1.0,0.0,0.0,0.0,0.0,0.0,0.0,0.0,0.0,0.0,0.0,0.0,0.0,0.0,0.0,0.0,0.0,0.0,0.0,0.0,0.0,0.0,0.029,-0.021,-0.937,0.0,0.0,0.0,0.0,0.0,0.0,0.0,0.0,0.0
1614051140.4013448,491,1614051140,228054046,odom,0.0,0.0,0.0,1.0,0.0,0.0,0.0,0.0,0.0,0.0,0.0,0.0,0.0,0.0,0.0,0.0,0.0,0.0,0.0,0.0,0.0,0.0,0.0,0.0,0.0,0.026,-0.022,-0.937,0.0,0.0,0.0,0.0,0.0,0.0,0.0,0.0,0.0
1614051140.6013188,492,1614051140,416504144,odom,0.0,0.0,0.0,1.0,0.0,0.0,0.0,0.0,0.0,0.0,0.0,0.0,0.0,0.0,0.0,0.0,0.0,0.0,0.0,0.0,0.0,0.0,0.0,0.0,0.0,0.023,-0.025,-0.938,0.0,0.0,0.0,0.0,0.0,0.0,0.0,0.0,0.0
1614051140.80716,493,1614051140,624922513,odom,0.0,0.0,0.0,1.0,0.0,0.0,0.0,0.0,0.0,0.0,0.0,0.0,0.0,0.0,0.0,0.0,0.0,0.0,0.0,0.0,0.0,0.0,0.0,0.0,0.0,0.034,-0.021,-0.933,0.0,0.0,0.0,0.0,0.0,0.0,0.0,0.0,0.0
1614051141.2039363,494,1614051141,33898353,odom,0.0,0.0,0.0,1.0,0.0,0.0,0.0,0.0,0.0,0.0,0.0,0.0,0.0,0.0,0.0,0.0,0.0,0.0,0.0,0.0,0.0,0.0,0.0,0.0,0.0,0.037,-0.017,-0.931,0.0,0.0,0.0,0.0,0.0,0.0,0.0,0.0,0.0
1614051141.4164612,495,1614051141,226420164,odom,0.0,0.0,0.0,1.0,0.0,0.0,0.0,0.0,0.0,0.0,0.0,0.0,0.0,0.0,0.0,0.0,0.0,0.0,0.0,0.0,0.0,0.0,0.0,0.0,0.0,0.018,-0.025,-0.946,0.0,0.0,0.0,0.0,0.0,0.0,0.0,0.0,0.0
1614051141.6068108,496,1614051141,424546241,odom,0.0,0.0,0.0,1.0,0.0,0.0,0.0,0.0,0.0,0.0,0.0,0.0,0.0,0.0,0.0,0.0,0.0,0.0,0.0,0.0,0.0,0.0,0.0,0.0,0.0,0.028,-0.019,-0.935,0.0,0.0,0.0,0.0,0.0,0.0,0.0,0.0,0.0
1614051141.8058255,497,1614051141,639696598,odom,0.0,0.0,0.0,1.0,0.0,0.0,0.0,0.0,0.0,0.0,0.0,0.0,0.0,0.0,0.0,0.0,0.0,0.0,0.0,0.0,0.0,0.0,0.0,0.0,0.0,0.028,-0.018,-0.936,0.0,0.0,0.0,0.0,0.0,0.0,0.0,0.0,0.0
1614051142.0133944,498,1614051141,837123394,odom,0.0,0.0,0.0,1.0,0.0,0.0,0.0,0.0,0.0,0.0,0.0,0.0,0.0,0.0,0.0,0.0,0.0,0.0,0.0,0.0,0.0,0.0,0.0,0.0,0.0,0.025,-0.02,-0.936,0.0,0.0,0.0,0.0,0.0,0.0,0.0,0.0,0.0
1614051142.2087975,499,1614051142,68132638,odom,0.0,0.0,0.0,1.0,0.0,0.0,0.0,0.0,0.0,0.0,0.0,0.0,0.0,0.0,0.0,0.0,0.0,0.0,0.0,0.0,0.0,0.0,0.0,0.0,0.0,0.027,-0.019,-0.937,0.0,0.0,0.0,0.0,0.0,0.0,0.0,0.0,0.0
1614051142.4087067,500,1614051142,250811100,odom,0.0,0.0,0.0,1.0,0.0,0.0,0.0,0.0,0.0,0.0,0.0,0.0,0.0,0.0,0.0,0.0,0.0,0.0,0.0,0.0,0.0,0.0,0.0,0.0,0.0,0.029,-0.018,-0.935,0.0,0.0,0.0,0.0,0.0,0.0,0.0,0.0,0.0
1614051142.615007,501,1614051142,427465677,odom,0.0,0.0,0.0,1.0,0.0,0.0,0.0,0.0,0.0,0.0,0.0,0.0,0.0,0.0,0.0,0.0,0.0,0.0,0.0,0.0,0.0,0.0,0.0,0.0,0.0,0.029,-0.019,-0.936,0.0,0.0,0.0,0.0,0.0,0.0,0.0,0.0,0.0
1614051142.8197217,502,1614051142,666270256,odom,0.0,0.0,0.0,1.0,0.0,0.0,0.0,0.0,0.0,0.0,0.0,0.0,0.0,0.0,0.0,0.0,0.0,0.0,0.0,0.0,0.0,0.0,0.0,0.0,0.0,0.024,-0.022,-0.937,0.0,0.0,0.0,0.0,0.0,0.0,0.0,0.0,0.0
1614051143.008541,503,1614051142,839032411,odom,0.0,0.0,0.0,1.0,0.0,0.0,0.0,0.0,0.0,0.0,0.0,0.0,0.0,0.0,0.0,0.0,0.0,0.0,0.0,0.0,0.0,0.0,0.0,0.0,0.0,0.027,-0.017,-0.935,0.0,0.0,0.0,0.0,0.0,0.0,0.0,0.0,0.0
1614051143.2117496,504,1614051143,52666664,odom,0.0,0.0,0.0,1.0,0.0,0.0,0.0,0.0,0.0,0.0,0.0,0.0,0.0,0.0,0.0,0.0,0.0,0.0,0.0,0.0,0.0,0.0,0.0,0.0,0.0,0.026,-0.025,-0.939,0.0,0.0,0.0,0.0,0.0,0.0,0.0,0.0,0.0
1614051143.4090216,505,1614051143,243118524,odom,0.0,0.0,0.0,1.0,0.0,0.0,0.0,0.0,0.0,0.0,0.0,0.0,0.0,0.0,0.0,0.0,0.0,0.0,0.0,0.0,0.0,0.0,0.0,0.0,0.0,0.031,-0.02,-0.932,0.0,0.0,0.0,0.0,0.0,0.0,0.0,0.0,0.0
1614051143.6097746,506,1614051143,456789493,odom,0.0,0.0,0.0,1.0,0.0,0.0,0.0,0.0,0.0,0.0,0.0,0.0,0.0,0.0,0.0,0.0,0.0,0.0,0.0,0.0,0.0,0.0,0.0,0.0,0.0,0.029,-0.022,-0.939,0.0,0.0,0.0,0.0,0.0,0.0,0.0,0.0,0.0
1614051143.8094227,507,1614051143,641965389,odom,0.0,0.0,0.0,1.0,0.0,0.0,0.0,0.0,0.0,0.0,0.0,0.0,0.0,0.0,0.0,0.0,0.0,0.0,0.0,0.0,0.0,0.0,0.0,0.0,0.0,0.027,-0.02,-0.941,0.0,0.0,0.0,0.0,0.0,0.0,0.0,0.0,0.0
1614051144.012158,508,1614051143,847070693,odom,0.0,0.0,0.0,1.0,0.0,0.0,0.0,0.0,0.0,0.0,0.0,0.0,0.0,0.0,0.0,0.0,0.0,0.0,0.0,0.0,0.0,0.0,0.0,0.0,0.0,0.028,-0.02,-0.935,0.0,0.0,0.0,0.0,0.0,0.0,0.0,0.0,0.0
1614051144.208591,509,1614051144,50559997,odom,0.0,0.0,0.0,1.0,0.0,0.0,0.0,0.0,0.0,0.0,0.0,0.0,0.0,0.0,0.0,0.0,0.0,0.0,0.0,0.0,0.0,0.0,0.0,0.0,0.0,0.028,-0.023,-0.937,0.0,0.0,0.0,0.0,0.0,0.0,0.0,0.0,0.0
1614051144.4100986,510,1614051144,259100914,odom,0.0,0.0,0.0,1.0,0.0,0.0,0.0,0.0,0.0,0.0,0.0,0.0,0.0,0.0,0.0,0.0,0.0,0.0,0.0,0.0,0.0,0.0,0.0,0.0,0.0,0.027,-0.02,-0.937,0.0,0.0,0.0,0.0,0.0,0.0,0.0,0.0,0.0
1614051144.609616,511,1614051144,445765733,odom,0.0,0.0,0.0,1.0,0.0,0.0,0.0,0.0,0.0,0.0,0.0,0.0,0.0,0.0,0.0,0.0,0.0,0.0,0.0,0.0,0.0,0.0,0.0,0.0,0.0,0.028,-0.022,-0.937,0.0,0.0,0.0,0.0,0.0,0.0,0.0,0.0,0.0
1614051144.8106594,512,1614051144,635229110,odom,0.0,0.0,0.0,1.0,0.0,0.0,0.0,0.0,0.0,0.0,0.0,0.0,0.0,0.0,0.0,0.0,0.0,0.0,0.0,0.0,0.0,0.0,0.0,0.0,0.0,0.025,-0.019,-0.94,0.0,0.0,0.0,0.0,0.0,0.0,0.0,0.0,0.0
1614051145.0170963,513,1614051144,853631973,odom,0.0,0.0,0.0,1.0,0.0,0.0,0.0,0.0,0.0,0.0,0.0,0.0,0.0,0.0,0.0,0.0,0.0,0.0,0.0,0.0,0.0,0.0,0.0,0.0,0.0,0.029,-0.018,-0.939,0.0,0.0,0.0,0.0,0.0,0.0,0.0,0.0,0.0
1614051145.2104664,514,1614051145,42927026,odom,0.0,0.0,0.0,1.0,0.0,0.0,0.0,0.0,0.0,0.0,0.0,0.0,0.0,0.0,0.0,0.0,0.0,0.0,0.0,0.0,0.0,0.0,0.0,0.0,0.0,0.027,-0.021,-0.935,0.0,0.0,0.0,0.0,0.0,0.0,0.0,0.0,0.0
1614051145.4258409,515,1614051145,241569757,odom,0.0,0.0,0.0,1.0,0.0,0.0,0.0,0.0,0.0,0.0,0.0,0.0,0.0,0.0,0.0,0.0,0.0,0.0,0.0,0.0,0.0,0.0,0.0,0.0,0.0,0.025,-0.02,-0.933,0.0,0.0,0.0,0.0,0.0,0.0,0.0,0.0,0.0
